workerid,proliferate.condition,anagram,category,id,interactions,internal_node_id,response,rt,set,setRun,stimulus,subject,time_elapsed,trial_index,trial_type,view_history,error
354,SetB3,,,,,0.0-0.0,,337019.0,,,,999,337026,0,instructions,"[{'page_index': 0, 'viewing_time': 11539}, {'page_index': 1, 'viewing_time': 164000}, {'page_index': 2, 'viewing_time': 19330}, {'page_index': 3, 'viewing_time': 9384}, {'page_index': 4, 'viewing_time': 81638}, {'page_index': 5, 'viewing_time': 51128}]",
354,SetB3,,consent,,,0.0-1.0,0,1709.0,,,"<p>By pressing continue below, I understand that I am consenting to participation in this research.</p>",999,338736,1,html-button-response,,
354,SetB3,,,,,0.0-2.0,,17353.0,,,,999,356091,2,instructions,"[{'page_index': 0, 'viewing_time': 2661}, {'page_index': 1, 'viewing_time': 1785}, {'page_index': 2, 'viewing_time': 2046}, {'page_index': 3, 'viewing_time': 3258}, {'page_index': 4, 'viewing_time': 2617}, {'page_index': 5, 'viewing_time': 3660}, {'page_index': 6, 'viewing_time': 1326}]",
354,SetB3,rapctiec,,practice,,0.0-3.0,practice,7974.0,practice,practice,,999,364065,3,gram,,
354,SetB3,,,,,0.0-4.0,,53485.0,,,,999,417550,4,instructions,"[{'page_index': 0, 'viewing_time': 1876}, {'page_index': 1, 'viewing_time': 50337}, {'page_index': 2, 'viewing_time': 1272}]",
354,SetB3,tsaet,,175,,0.0-5.0-0.0,taste,6757.0,SetB,SetB3,,999,424309,5,gram,,
354,SetB3,ecagrh,,101,,0.0-5.0-0.1,greach,192029.0,SetB,SetB3,,999,616339,6,gram,,
354,SetB3,inlpec,,161,,0.0-5.0-0.2,pencil,20332.0,SetB,SetB3,,999,636670,7,gram,,
354,SetB3,yyrale,,095,,0.0-5.0-0.3,yearly,11192.0,SetB,SetB3,,999,647863,8,gram,,
354,SetB3,nderu,,157,,0.0-5.0-0.4,under,67475.0,SetB,SetB3,,999,715340,9,gram,,
354,SetB3,oyugn,,097,,0.0-5.0-0.5,young,101072.0,SetB,SetB3,,999,816412,10,gram,,
354,SetB3,wrdol,,178,,0.0-5.0-0.6,world,6421.0,SetB,SetB3,,999,822833,11,gram,,
354,SetB3,erad,,167,,0.0-5.0-0.7,read,2453.0,SetB,SetB3,,999,825286,12,gram,,
354,SetB3,ekpe,,148,,0.0-5.0-0.8,peek,3824.0,SetB,SetB3,,999,829112,13,gram,,
354,SetB3,lalc,,110,,0.0-5.0-0.9,call,4992.0,SetB,SetB3,,999,834104,14,gram,,
354,SetB3,ruesp,,120,,0.0-5.0-0.10,super,119153.0,SetB,SetB3,,999,953260,15,gram,,
354,SetB3,iuteq,,153,,0.0-5.0-0.11,quite,9537.0,SetB,SetB3,,999,962797,16,gram,,
354,SetB3,gener,,144,,0.0-5.0-0.12,green,18006.0,SetB,SetB3,,999,980804,17,gram,,
354,SetB3,twire,,096,,0.0-5.0-0.13,write,13312.0,SetB,SetB3,,999,994116,18,gram,,
354,SetB3,meltep,,158,,0.0-5.0-0.14,temple,111403.0,SetB,SetB3,,999,1105520,19,gram,,
354,SetB3,jniruy,,129,,0.0-5.0-0.15,injury,5132.0,SetB,SetB3,,999,1110654,20,gram,,
354,SetB3,lneeed,,138,,0.0-5.0-0.16,indeed,4905.0,SetB,SetB3,,999,1115559,21,gram,,
354,SetB3,paly,,133,,0.0-5.0-0.17,play,6620.0,SetB,SetB3,,999,1122180,22,gram,,
354,SetB3,vnisoi,,123,,0.0-5.0-0.18,vision,3951.0,SetB,SetB3,,999,1126131,23,gram,,
354,SetB3,sdnat,,169,,0.0-5.0-0.19,stand,29765.0,SetB,SetB3,,999,1155897,24,gram,,
354,SetB3,ripeem,,092,,0.0-5.0-0.20,premie,193113.0,SetB,SetB3,,999,1349010,25,gram,,
354,SetB3,habcrn,,165,,0.0-5.0-0.21,branch,312285.0,SetB,SetB3,,999,1661295,26,gram,,
354,SetB3,niel,,109,,0.0-5.0-0.22,line,4060.0,SetB,SetB3,,999,1665356,27,gram,,
354,SetB3,enxt,,177,,0.0-5.0-0.23,next,17078.0,SetB,SetB3,,999,1682435,28,gram,,
354,SetB3,uspl,,162,,0.0-5.0-0.24,plus,3477.0,SetB,SetB3,,999,1685913,29,gram,,
354,SetB3,wteall,,099,,0.0-5.0-0.25,wallet,102225.0,SetB,SetB3,,999,1788138,30,gram,,
354,SetB3,agpe,,132,,0.0-5.0-0.26,gape,3965.0,SetB,SetB3,,999,1792103,31,gram,,
354,SetB3,ewrhe,,128,,0.0-5.0-0.27,where,6864.0,SetB,SetB3,,999,1798968,32,gram,,
354,SetB3,anlxie,,136,,0.0-5.0-0.28,lanxie,245496.0,SetB,SetB3,,999,2044465,33,gram,,
354,SetB3,ecfa,,106,,0.0-5.0-0.29,face,3370.0,SetB,SetB3,,999,2047836,34,gram,,
354,SetB3,,resting,,,0.0-6.0,0,84920.0,,,<p>Great job! You have completed the first block of trials.</p><p>Take a short break before continuing to the next block.</p>,999,2132758,35,html-button-response,,
354,SetB3,atsy,,164,,0.0-7.0-0.0,stay,10680.0,SetB,SetB3,,999,2143438,36,gram,,
354,SetB3,leiv,,107,,0.0-7.0-0.1,veil,15871.0,SetB,SetB3,,999,2159310,37,gram,,
354,SetB3,kuicq,,130,,0.0-7.0-0.2,quick,5938.0,SetB,SetB3,,999,2165248,38,gram,,
354,SetB3,aretw,,174,,0.0-7.0-0.3,water,83010.0,SetB,SetB3,,999,2248257,39,gram,,
354,SetB3,tpra,,142,,0.0-7.0-0.4,trap,6548.0,SetB,SetB3,,999,2254806,40,gram,,
354,SetB3,hgtir,,168,,0.0-7.0-0.5,right,10234.0,SetB,SetB3,,999,2265040,41,gram,,
354,SetB3,faodfr,,093,,0.0-7.0-0.6,afford,186956.0,SetB,SetB3,,999,2451996,42,gram,,
354,SetB3,brorha,,100,,0.0-7.0-0.7,harbor,151823.0,SetB,SetB3,,999,2603819,43,gram,,
354,SetB3,ofcife,,103,,0.0-7.0-0.8,office,4689.0,SetB,SetB3,,999,2608509,44,gram,,
354,SetB3,hoest,,163,,0.0-7.0-0.9,those,25027.0,SetB,SetB3,,999,2633537,45,gram,,
354,SetB3,uqiet,,155,,0.0-7.0-0.10,quiet,10063.0,SetB,SetB3,,999,2643601,46,gram,,
354,SetB3,weset,,125,,0.0-7.0-0.11,sweet,68277.0,SetB,SetB3,,999,2711878,47,gram,,
354,SetB3,ehwti,,117,,0.0-7.0-0.12,white,11558.0,SetB,SetB3,,999,2723437,48,gram,,
354,SetB3,srue,,159,,0.0-7.0-0.13,sure,2788.0,SetB,SetB3,,999,2726225,49,gram,,
354,SetB3,lissof,,141,,0.0-7.0-0.14,fossil,8162.0,SetB,SetB3,,999,2734388,50,gram,,
354,SetB3,mrtpio,,139,,0.0-7.0-0.15,import,74381.0,SetB,SetB3,,999,2808768,51,gram,,
354,SetB3,tnigh,,171,,0.0-7.0-0.16,night,4821.0,SetB,SetB3,,999,2813590,52,gram,,
354,SetB3,ielhw,,112,,0.0-7.0-0.17,while,6553.0,SetB,SetB3,,999,2820144,53,gram,,
354,SetB3,wihhc,,119,,0.0-7.0-0.18,which,4266.0,SetB,SetB3,,999,2824412,54,gram,,
354,SetB3,eelf,,137,,0.0-7.0-0.19,flee,6262.0,SetB,SetB3,,999,2830674,55,gram,,
354,SetB3,esonra,,180,,0.0-7.0-0.20,reason,10380.0,SetB,SetB3,,999,2841055,56,gram,,
354,SetB3,rnut,,122,,0.0-7.0-0.21,turnj,6857.0,SetB,SetB3,,999,2847912,57,gram,,
354,SetB3,dnee,,170,,0.0-7.0-0.22,need,4582.0,SetB,SetB3,,999,2852494,58,gram,,
354,SetB3,yotsr,,147,,0.0-7.0-0.23,story,6840.0,SetB,SetB3,,999,2859336,59,gram,,
354,SetB3,yict,,150,,0.0-7.0-0.24,city,11733.0,SetB,SetB3,,999,2871069,60,gram,,
354,SetB3,eflt,,118,,0.0-7.0-0.25,left,4656.0,SetB,SetB3,,999,2875725,61,gram,,
354,SetB3,atkl,,127,,0.0-7.0-0.26,talk,14990.0,SetB,SetB3,,999,2890717,62,gram,,
354,SetB3,htigl,,098,,0.0-7.0-0.27,light,13594.0,SetB,SetB3,,999,2904311,63,gram,,
354,SetB3,vome,,121,,0.0-7.0-0.28,move,3573.0,SetB,SetB3,,999,2907886,64,gram,,
354,SetB3,ocdiaz,,152,,0.0-7.0-0.29,zodiac,110329.0,SetB,SetB3,,999,3018215,65,gram,,
354,SetB3,,resting,,,0.0-8.0,0,211111.0,,,<p>Great job! You have completed the second block of trials.</p><p>Take a short break before continuing to the final block.</p>,999,3229327,66,html-button-response,,
354,SetB3,evuqri,,149,,0.0-9.0-0.0,quiver,8927.0,SetB,SetB3,,999,3238254,67,gram,,
354,SetB3,tfhrea,,105,,0.0-9.0-0.1,father,116343.0,SetB,SetB3,,999,3354598,68,gram,,
354,SetB3,altpop,,166,,0.0-9.0-0.2,laptop,33045.0,SetB,SetB3,,999,3387644,69,gram,,
354,SetB3,dgrnae,,143,,0.0-9.0-0.3,garden,172353.0,SetB,SetB3,,999,3559999,70,gram,,
354,SetB3,higts,,104,,0.0-9.0-0.4,sight,14416.0,SetB,SetB3,,999,3574415,71,gram,,
354,SetB3,phel,,113,,0.0-9.0-0.5,help,5837.0,SetB,SetB3,,999,3580252,72,gram,,
354,SetB3,emse,,124,,0.0-9.0-0.6,seem,2525.0,SetB,SetB3,,999,3582778,73,gram,,
354,SetB3,elvo,,111,,0.0-9.0-0.7,love,74490.0,SetB,SetB3,,999,3657269,74,gram,,
354,SetB3,odlwu,,114,,0.0-9.0-0.8,would,85567.0,SetB,SetB3,,999,3742836,75,gram,,
354,SetB3,eevn,,102,,0.0-9.0-0.9,even,8102.0,SetB,SetB3,,999,3750940,76,gram,,
354,SetB3,mihgt,,108,,0.0-9.0-0.10,might,12143.0,SetB,SetB3,,999,3763084,77,gram,,
354,SetB3,rngay,,179,,0.0-9.0-0.11,angry,70351.0,SetB,SetB3,,999,3833435,78,gram,,
354,SetB3,dptuae,,140,,0.0-9.0-0.12,daptua,199471.0,SetB,SetB3,,999,4032908,79,gram,,
354,SetB3,rdah,,154,,0.0-9.0-0.13,hard,3589.0,SetB,SetB3,,999,4036497,80,gram,,
354,SetB3,nowbr,,151,,0.0-9.0-0.14,brown,3354.0,SetB,SetB3,,999,4039851,81,gram,,
354,SetB3,hmerma,,172,,0.0-9.0-0.15,hammer,13991.0,SetB,SetB3,,999,4053843,82,gram,,
354,SetB3,aecrl,,145,,0.0-9.0-0.16,larce,89794.0,SetB,SetB3,,999,4143638,83,gram,,
354,SetB3,psto,,135,,0.0-9.0-0.17,stop,3819.0,SetB,SetB3,,999,4147459,84,gram,,
354,SetB3,aklbc,,173,,0.0-9.0-0.18,black,4376.0,SetB,SetB3,,999,4151836,85,gram,,
354,SetB3,eocm,,156,,0.0-9.0-0.19,come,4403.0,SetB,SetB3,,999,4156239,86,gram,,
354,SetB3,cekjta,,134,,0.0-9.0-0.20,jacke,171413.0,SetB,SetB3,,999,4327653,87,gram,,
354,SetB3,genrad,,116,,0.0-9.0-0.21,danger,77143.0,SetB,SetB3,,999,4404797,88,gram,,
354,SetB3,uitrag,,160,,0.0-9.0-0.22,guitar,43106.0,SetB,SetB3,,999,4447903,89,gram,,
354,SetB3,awya,,126,,0.0-9.0-0.23,away,35299.0,SetB,SetB3,,999,4483202,90,gram,,
354,SetB3,okrw,,176,,0.0-9.0-0.24,work,53553.0,SetB,SetB3,,999,4536757,91,gram,,
354,SetB3,atrts,,115,,0.0-9.0-0.25,start,6028.0,SetB,SetB3,,999,4542786,92,gram,,
354,SetB3,priist,,131,,0.0-9.0-0.26,sirtip,122923.0,SetB,SetB3,,999,4665711,93,gram,,
354,SetB3,rrmoir,,094,,0.0-9.0-0.27,mirror,13925.0,SetB,SetB3,,999,4679636,94,gram,,
354,SetB3,klelri,,146,,0.0-9.0-0.28,killer,86932.0,SetB,SetB3,,999,4766569,95,gram,,
354,SetB3,ndif,,091,,0.0-9.0-0.29,find,5007.0,SetB,SetB3,,999,4771578,96,gram,,
354,SetB3,,,,"[{""event"":""focus"",""trial"":0,""time"":1},{""event"":""blur"",""trial"":0,""time"":25164},{""event"":""focus"",""trial"":0,""time"":168097},{""event"":""blur"",""trial"":0,""time"":205299},{""event"":""focus"",""trial"":0,""time"":206590},{""event"":""blur"",""trial"":0,""time"":246425},{""event"":""focus"",""trial"":0,""time"":259532},{""event"":""blur"",""trial"":0,""time"":262344},{""event"":""focus"",""trial"":0,""time"":267107},{""event"":""blur"",""trial"":0,""time"":280559},{""event"":""focus"",""trial"":0,""time"":280654},{""event"":""blur"",""trial"":0,""time"":281021},{""event"":""focus"",""trial"":0,""time"":285809},{""event"":""blur"",""trial"":4,""time"":414665},{""event"":""focus"",""trial"":4,""time"":416188},{""event"":""blur"",""trial"":6,""time"":494241},{""event"":""focus"",""trial"":6,""time"":494762},{""event"":""blur"",""trial"":9,""time"":676165},{""event"":""focus"",""trial"":9,""time"":690354},{""event"":""blur"",""trial"":10,""time"":747824},{""event"":""focus"",""trial"":10,""time"":758149},{""event"":""blur"",""trial"":10,""time"":804954},{""event"":""focus"",""trial"":10,""time"":809779},{""event"":""blur"",""trial"":15,""time"":936101},{""event"":""focus"",""trial"":15,""time"":944287},{""event"":""blur"",""trial"":25,""time"":1305478},{""event"":""focus"",""trial"":25,""time"":1314338},{""event"":""blur"",""trial"":30,""time"":1706884},{""event"":""focus"",""trial"":30,""time"":1731558},{""event"":""blur"",""trial"":33,""time"":2011841},{""event"":""focus"",""trial"":33,""time"":2012931},{""event"":""blur"",""trial"":33,""time"":2040490},{""event"":""focus"",""trial"":33,""time"":2043165},{""event"":""blur"",""trial"":37,""time"":2155328},{""event"":""focus"",""trial"":37,""time"":2158012},{""event"":""blur"",""trial"":39,""time"":2199113},{""event"":""focus"",""trial"":39,""time"":2200319},{""event"":""blur"",""trial"":47,""time"":2655648},{""event"":""focus"",""trial"":47,""time"":2662108},{""event"":""blur"",""trial"":65,""time"":2921933},{""event"":""focus"",""trial"":65,""time"":2941339},{""event"":""blur"",""trial"":65,""time"":2998639},{""event"":""focus"",""trial"":65,""time"":3016266},{""event"":""blur"",""trial"":68,""time"":3251418},{""event"":""focus"",""trial"":68,""time"":3263359},{""event"":""blur"",""trial"":70,""time"":3429771},{""event"":""focus"",""trial"":70,""time"":3443019},{""event"":""blur"",""trial"":79,""time"":3836388},{""event"":""focus"",""trial"":79,""time"":3847904},{""event"":""blur"",""trial"":79,""time"":3850958},{""event"":""focus"",""trial"":79,""time"":3865627},{""event"":""blur"",""trial"":79,""time"":3868418},{""event"":""focus"",""trial"":79,""time"":3876528},{""event"":""blur"",""trial"":79,""time"":3885094},{""event"":""focus"",""trial"":79,""time"":3886771},{""event"":""blur"",""trial"":79,""time"":3923794},{""event"":""focus"",""trial"":79,""time"":3933444},{""event"":""blur"",""trial"":95,""time"":4753416},{""event"":""focus"",""trial"":95,""time"":4754987},{""event"":""blur"",""trial"":97,""time"":4773403},{""event"":""focus"",""trial"":97,""time"":4774840},{""event"":""blur"",""trial"":97,""time"":4779315},{""event"":""focus"",""trial"":97,""time"":4780864},{""event"":""blur"",""trial"":97,""time"":4789220},{""event"":""focus"",""trial"":97,""time"":4791749}]",0.0-11.0,,6798.0,,,,999,4864868,98,instructions,"[{'page_index': 0, 'viewing_time': 3857}, {'page_index': 1, 'viewing_time': 2941}]",
338,SetB3,,,,,0.0-0.0,,111771.0,,,,999,111795,0,instructions,"[{'page_index': 0, 'viewing_time': 1844}, {'page_index': 1, 'viewing_time': 25778}, {'page_index': 2, 'viewing_time': 36248}, {'page_index': 3, 'viewing_time': 22256}, {'page_index': 4, 'viewing_time': 16734}, {'page_index': 5, 'viewing_time': 8910}]",
338,SetB3,,consent,,,0.0-1.0,0,2588.0,,,"<p>By pressing continue below, I understand that I am consenting to participation in this research.</p>",999,114386,1,html-button-response,,
338,SetB3,,,,,0.0-2.0,,34366.0,,,,999,148753,2,instructions,"[{'page_index': 0, 'viewing_time': 6228}, {'page_index': 1, 'viewing_time': 4373}, {'page_index': 2, 'viewing_time': 2043}, {'page_index': 3, 'viewing_time': 5053}, {'page_index': 4, 'viewing_time': 7703}, {'page_index': 5, 'viewing_time': 7310}, {'page_index': 6, 'viewing_time': 1655}]",
338,SetB3,rapctiec,,practice,,0.0-3.0,practice,23421.90000000596,practice,practice,,999,172178,3,gram,,
338,SetB3,,,,,0.0-4.0,,26817.0,,,,999,198996,4,instructions,"[{'page_index': 0, 'viewing_time': 1455}, {'page_index': 1, 'viewing_time': 9626}, {'page_index': 2, 'viewing_time': 15736}]",
338,SetB3,tsaet,,175,,0.0-5.0-0.0,taste,6222.700000017881,SetB,SetB3,,999,205222,5,gram,,
338,SetB3,ecagrh,,101,,0.0-5.0-0.1,charge,16340.19999998808,SetB,SetB3,,999,221565,6,gram,,
338,SetB3,inlpec,,161,,0.0-5.0-0.2,pencil,15921.79999998212,SetB,SetB3,,999,237488,7,gram,,
338,SetB3,yyrale,,095,,0.0-5.0-0.3,yearly,29646.69999998808,SetB,SetB3,,999,267137,8,gram,,
338,SetB3,nderu,,157,,0.0-5.0-0.4,under,72486.69999998808,SetB,SetB3,,999,339625,9,gram,,
338,SetB3,oyugn,,097,,0.0-5.0-0.5,young,16721.80000001192,SetB,SetB3,,999,356348,10,gram,,
338,SetB3,wrdol,,178,,0.0-5.0-0.6,world,1962.800000011921,SetB,SetB3,,999,358312,11,gram,,
338,SetB3,erad,,167,,0.0-5.0-0.7,read,1781.0,SetB,SetB3,,999,360093,12,gram,,
338,SetB3,ekpe,,148,,0.0-5.0-0.8,peek,3117.4000000059605,SetB,SetB3,,999,363211,13,gram,,
338,SetB3,lalc,,110,,0.0-5.0-0.9,call,3302.0,SetB,SetB3,,999,366514,14,gram,,
338,SetB3,ruesp,,120,,0.0-5.0-0.10,purse,21506.20000001788,SetB,SetB3,,999,388021,15,gram,,
338,SetB3,iuteq,,153,,0.0-5.0-0.11,quiet,4771.5,SetB,SetB3,,999,392793,16,gram,,
338,SetB3,gener,,144,,0.0-5.0-0.12,genre,5884.5999999940395,SetB,SetB3,,999,398679,17,gram,,
338,SetB3,twire,,096,,0.0-5.0-0.13,wirte,32264.40000000596,SetB,SetB3,,999,430944,18,gram,,
338,SetB3,meltep,,158,,0.0-5.0-0.14,temple,63646.89999997616,SetB,SetB3,,999,494592,19,gram,,
338,SetB3,jniruy,,129,,0.0-5.0-0.15,injury,3720.900000005961,SetB,SetB3,,999,498313,20,gram,,
338,SetB3,lneeed,,138,,0.0-5.0-0.16,needle,87239.70000001788,SetB,SetB3,,999,585554,21,gram,,
338,SetB3,paly,,133,,0.0-5.0-0.17,play,3364.300000011921,SetB,SetB3,,999,588919,22,gram,,
338,SetB3,vnisoi,,123,,0.0-5.0-0.18,vision,4856.9000000059605,SetB,SetB3,,999,593777,23,gram,,
338,SetB3,sdnat,,169,,0.0-5.0-0.19,stand,11983.69999998808,SetB,SetB3,,999,605761,24,gram,,
338,SetB3,ripeem,,092,,0.0-5.0-0.20,empire,34959.29999998212,SetB,SetB3,,999,640721,25,gram,,
338,SetB3,habcrn,,165,,0.0-5.0-0.21,branch,85559.89999997616,SetB,SetB3,,999,725814,26,gram,,
338,SetB3,niel,,109,,0.0-5.0-0.22,line,23828.29999998212,SetB,SetB3,,999,749643,27,gram,,
338,SetB3,enxt,,177,,0.0-5.0-0.23,next,1912.9000000059605,SetB,SetB3,,999,751556,28,gram,,
338,SetB3,uspl,,162,,0.0-5.0-0.24,plus,3817.800000011921,SetB,SetB3,,999,755375,29,gram,,
338,SetB3,wteall,,099,,0.0-5.0-0.25,wallet,79043.80000001192,SetB,SetB3,,999,834419,30,gram,,
338,SetB3,agpe,,132,,0.0-5.0-0.26,gape,3038.199999988079,SetB,SetB3,,999,837458,31,gram,,
338,SetB3,ewrhe,,128,,0.0-5.0-0.27,where,1678.5999999940395,SetB,SetB3,,999,839137,32,gram,,
338,SetB3,anlxie,,136,,0.0-5.0-0.28,axel,53403.60000002384,SetB,SetB3,,999,892541,33,gram,,
338,SetB3,ecfa,,106,,0.0-5.0-0.29,cafe,2548.4000000059605,SetB,SetB3,,999,895090,34,gram,,
338,SetB3,,resting,,,0.0-6.0,0,2093.0,,,<p>Great job! You have completed the first block of trials.</p><p>Take a short break before continuing to the next block.</p>,999,897185,35,html-button-response,,
338,SetB3,atsy,,164,,0.0-7.0-0.0,stay,8782.700000017881,SetB,SetB3,,999,905968,36,gram,,
338,SetB3,leiv,,107,,0.0-7.0-0.1,live,3270.4000000059605,SetB,SetB3,,999,909240,37,gram,,
338,SetB3,kuicq,,130,,0.0-7.0-0.2,quick,2263.300000011921,SetB,SetB3,,999,911504,38,gram,,
338,SetB3,aretw,,174,,0.0-7.0-0.3,water,2022.5,SetB,SetB3,,999,913527,39,gram,,
338,SetB3,tpra,,142,,0.0-7.0-0.4,part,2946.2999999821186,SetB,SetB3,,999,916473,40,gram,,
338,SetB3,hgtir,,168,,0.0-7.0-0.5,right,4472.0999999940395,SetB,SetB3,,999,920946,41,gram,,
338,SetB3,faodfr,,093,,0.0-7.0-0.6,afford,73247.40000000596,SetB,SetB3,,999,994194,42,gram,,
338,SetB3,brorha,,100,,0.0-7.0-0.7,harbor,15526.30000001192,SetB,SetB3,,999,1009721,43,gram,,
338,SetB3,ofcife,,103,,0.0-7.0-0.8,office,2387.199999988079,SetB,SetB3,,999,1012109,44,gram,,
338,SetB3,hoest,,163,,0.0-7.0-0.9,those,85664.59999999404,SetB,SetB3,,999,1097773,45,gram,,
338,SetB3,uqiet,,155,,0.0-7.0-0.10,quiet,3584.0999999940395,SetB,SetB3,,999,1101358,46,gram,,
338,SetB3,weset,,125,,0.0-7.0-0.11,sweet,9325.79999998212,SetB,SetB3,,999,1110684,47,gram,,
338,SetB3,ehwti,,117,,0.0-7.0-0.12,white,2835.5,SetB,SetB3,,999,1113520,48,gram,,
338,SetB3,srue,,159,,0.0-7.0-0.13,ruse,5816.5,SetB,SetB3,,999,1119337,49,gram,,
338,SetB3,lissof,,141,,0.0-7.0-0.14,fossil,7276.299999982119,SetB,SetB3,,999,1126614,50,gram,,
338,SetB3,mrtpio,,139,,0.0-7.0-0.15,import,28247.29999998212,SetB,SetB3,,999,1154862,51,gram,,
338,SetB3,tnigh,,171,,0.0-7.0-0.16,night,1986.899999976158,SetB,SetB3,,999,1156850,52,gram,,
338,SetB3,ielhw,,112,,0.0-7.0-0.17,while,5424.799999982119,SetB,SetB3,,999,1162276,53,gram,,
338,SetB3,wihhc,,119,,0.0-7.0-0.18,which,5766.199999988079,SetB,SetB3,,999,1168043,54,gram,,
338,SetB3,eelf,,137,,0.0-7.0-0.19,feel,2479.5,SetB,SetB3,,999,1170523,55,gram,,
338,SetB3,esonra,,180,,0.0-7.0-0.20,reason,8900.09999999404,SetB,SetB3,,999,1179425,56,gram,,
338,SetB3,rnut,,122,,0.0-7.0-0.21,turn,6878.199999988079,SetB,SetB3,,999,1186304,57,gram,,
338,SetB3,dnee,,170,,0.0-7.0-0.22,need,1911.600000023842,SetB,SetB3,,999,1188216,58,gram,,
338,SetB3,yotsr,,147,,0.0-7.0-0.23,story,3474.9000000059605,SetB,SetB3,,999,1191692,59,gram,,
338,SetB3,yict,,150,,0.0-7.0-0.24,city,2819.0999999940395,SetB,SetB3,,999,1194512,60,gram,,
338,SetB3,eflt,,118,,0.0-7.0-0.25,felt,5717.9000000059605,SetB,SetB3,,999,1200231,61,gram,,
338,SetB3,atkl,,127,,0.0-7.0-0.26,talk,15745.80000001192,SetB,SetB3,,999,1215978,62,gram,,
338,SetB3,htigl,,098,,0.0-7.0-0.27,light,2067.2999999821186,SetB,SetB3,,999,1218046,63,gram,,
338,SetB3,vome,,121,,0.0-7.0-0.28,move,2358.699999988079,SetB,SetB3,,999,1220406,64,gram,,
338,SetB3,ocdiaz,,152,,0.0-7.0-0.29,zodiac,4276.799999982119,SetB,SetB3,,999,1224684,65,gram,,
338,SetB3,,resting,,,0.0-8.0,0,1734.0,,,<p>Great job! You have completed the second block of trials.</p><p>Take a short break before continuing to the final block.</p>,999,1226420,66,html-button-response,,
338,SetB3,evuqri,,149,,0.0-9.0-0.0,quiver,5038.199999988079,SetB,SetB3,,999,1231459,67,gram,,
338,SetB3,tfhrea,,105,,0.0-9.0-0.1,farther,50215.60000002384,SetB,SetB3,,999,1281677,68,gram,,
338,SetB3,altpop,,166,,0.0-9.0-0.2,laptop,13458.899999976158,SetB,SetB3,,999,1295137,69,gram,,
338,SetB3,dgrnae,,143,,0.0-9.0-0.3,grenade,22645.69999998808,SetB,SetB3,,999,1317783,70,gram,,
338,SetB3,higts,,104,,0.0-9.0-0.4,sight,3886.599999994039,SetB,SetB3,,999,1321670,71,gram,,
338,SetB3,phel,,113,,0.0-9.0-0.5,help,6996.0,SetB,SetB3,,999,1328667,72,gram,,
338,SetB3,emse,,124,,0.0-9.0-0.6,seem,2748.0,SetB,SetB3,,999,1331416,73,gram,,
338,SetB3,elvo,,111,,0.0-9.0-0.7,love,6732.799999982119,SetB,SetB3,,999,1338150,74,gram,,
338,SetB3,odlwu,,114,,0.0-9.0-0.8,would,4936.700000017881,SetB,SetB3,,999,1343088,75,gram,,
338,SetB3,eevn,,102,,0.0-9.0-0.9,even,2767.7999999821186,SetB,SetB3,,999,1345857,76,gram,,
338,SetB3,mihgt,,108,,0.0-9.0-0.10,might,1874.899999976158,SetB,SetB3,,999,1347733,77,gram,,
338,SetB3,rngay,,179,,0.0-9.0-0.11,garny,42612.0,SetB,SetB3,,999,1390346,78,gram,,
338,SetB3,dptuae,,140,,0.0-9.0-0.12,update,33930.59999999404,SetB,SetB3,,999,1424277,79,gram,,
338,SetB3,rdah,,154,,0.0-9.0-0.13,hard,3525.0,SetB,SetB3,,999,1427802,80,gram,,
338,SetB3,nowbr,,151,,0.0-9.0-0.14,brown,3835.5,SetB,SetB3,,999,1431639,81,gram,,
338,SetB3,hmerma,,172,,0.0-9.0-0.15,hammer,7028.5999999940395,SetB,SetB3,,999,1438668,82,gram,,
338,SetB3,aecrl,,145,,0.0-9.0-0.16,clear,39624.30000001192,SetB,SetB3,,999,1478293,83,gram,,
338,SetB3,psto,,135,,0.0-9.0-0.17,post,3401.699999988079,SetB,SetB3,,999,1481696,84,gram,,
338,SetB3,aklbc,,173,,0.0-9.0-0.18,black,2658.800000011921,SetB,SetB3,,999,1484356,85,gram,,
338,SetB3,eocm,,156,,0.0-9.0-0.19,come,2688.0,SetB,SetB3,,999,1487045,86,gram,,
338,SetB3,cekjta,,134,,0.0-9.0-0.20,jacket,3994.599999994039,SetB,SetB3,,999,1491040,87,gram,,
338,SetB3,genrad,,116,,0.0-9.0-0.21,danger,40486.90000000596,SetB,SetB3,,999,1531528,88,gram,,
338,SetB3,uitrag,,160,,0.0-9.0-0.22,guitar,36626.09999999404,SetB,SetB3,,999,1568155,89,gram,,
338,SetB3,awya,,126,,0.0-9.0-0.23,away,1951.0,SetB,SetB3,,999,1570107,90,gram,,
338,SetB3,okrw,,176,,0.0-9.0-0.24,work,1950.2999999821184,SetB,SetB3,,999,1572058,91,gram,,
338,SetB3,atrts,,115,,0.0-9.0-0.25,start,4174.0,SetB,SetB3,,999,1576233,92,gram,,
338,SetB3,priist,,131,,0.0-9.0-0.26,spirit,30521.59999999404,SetB,SetB3,,999,1606755,93,gram,,
338,SetB3,rrmoir,,094,,0.0-9.0-0.27,mirror,41671.19999998808,SetB,SetB3,,999,1648353,94,gram,,
338,SetB3,klelri,,146,,0.0-9.0-0.28,killer,7353.5,SetB,SetB3,,999,1655706,95,gram,,
338,SetB3,ndif,,091,,0.0-9.0-0.29,find,2197.9000000059605,SetB,SetB3,,999,1657905,96,gram,,
338,SetB3,,,,"[{""event"":""blur"",""trial"":97,""time"":1662582},{""event"":""focus"",""trial"":97,""time"":1665181},{""event"":""blur"",""trial"":97,""time"":1671729},{""event"":""focus"",""trial"":97,""time"":1675049},{""event"":""blur"",""trial"":97,""time"":1683104},{""event"":""focus"",""trial"":97,""time"":1689594},{""event"":""blur"",""trial"":97,""time"":1695256},{""event"":""focus"",""trial"":97,""time"":1702420},{""event"":""blur"",""trial"":97,""time"":1709781},{""event"":""focus"",""trial"":97,""time"":1714856},{""event"":""blur"",""trial"":97,""time"":1718998},{""event"":""focus"",""trial"":97,""time"":1725282},{""event"":""blur"",""trial"":97,""time"":1730896},{""event"":""focus"",""trial"":97,""time"":1735463},{""event"":""blur"",""trial"":97,""time"":1739301},{""event"":""focus"",""trial"":97,""time"":1744805},{""event"":""blur"",""trial"":97,""time"":1749823},{""event"":""focus"",""trial"":97,""time"":1753363},{""event"":""blur"",""trial"":97,""time"":1764037},{""event"":""focus"",""trial"":97,""time"":1770439},{""event"":""blur"",""trial"":97,""time"":1783420},{""event"":""focus"",""trial"":97,""time"":1794351}]",0.0-11.0,,7023.0,,,,999,1807259,98,instructions,"[{'page_index': 0, 'viewing_time': 2629}, {'page_index': 1, 'viewing_time': 4394}]",
353,SetA4,,,,,0.0-0.0,,82625.0,,,,999,82640,0,instructions,"[{'page_index': 0, 'viewing_time': 9104}, {'page_index': 1, 'viewing_time': 21930}, {'page_index': 2, 'viewing_time': 28014}, {'page_index': 3, 'viewing_time': 10816}, {'page_index': 4, 'viewing_time': 9689}, {'page_index': 5, 'viewing_time': 3073}]",
353,SetA4,,consent,,,0.0-1.0,0,5432.0,,,"<p>By pressing continue below, I understand that I am consenting to participation in this research.</p>",999,88074,1,html-button-response,,
353,SetA4,,,,,0.0-2.0,,31682.0,,,,999,119757,2,instructions,"[{'page_index': 0, 'viewing_time': 6008}, {'page_index': 1, 'viewing_time': 4431}, {'page_index': 2, 'viewing_time': 2992}, {'page_index': 3, 'viewing_time': 4641}, {'page_index': 4, 'viewing_time': 4817}, {'page_index': 5, 'viewing_time': 5220}, {'page_index': 6, 'viewing_time': 3573}]",
353,SetA4,rapctiec,,practice,,0.0-3.0,practice,13042.099999904633,practice,practice,,999,132802,3,gram,,
353,SetA4,,,,,0.0-4.0,,12856.0,,,,999,145659,4,instructions,"[{'page_index': 0, 'viewing_time': 3128}, {'page_index': 1, 'viewing_time': 5319}, {'page_index': 2, 'viewing_time': 4409}]",
353,SetA4,itsh,,064,,0.0-5.0-0.0,hits,5094.5,SetA,SetA4,,999,150756,5,gram,,
353,SetA4,tnurea,,060,,0.0-5.0-0.1,nature,3063.599999904633,SetA,SetA4,,999,153821,6,gram,,
353,SetA4,oruy,,063,,0.0-5.0-0.2,your,5614.900000095367,SetA,SetA4,,999,159436,7,gram,,
353,SetA4,lkie,,085,,0.0-5.0-0.3,like,2504.800000190735,SetA,SetA4,,999,161942,8,gram,,
353,SetA4,rebeez,,074,,0.0-5.0-0.4,breeze,3647.7000002861023,SetA,SetA4,,999,165590,9,gram,,
353,SetA4,ttha,,045,,0.0-5.0-0.5,that,2342.800000190735,SetA,SetA4,,999,167934,10,gram,,
353,SetA4,antw,,049,,0.0-5.0-0.6,want,2463.599999904633,SetA,SetA4,,999,170398,11,gram,,
353,SetA4,husoe,,034,,0.0-5.0-0.7,house,2560.7000002861023,SetA,SetA4,,999,172960,12,gram,,
353,SetA4,ncotai,,027,,0.0-5.0-0.8,action,13488.199999809263,SetA,SetA4,,999,186436,13,gram,,
353,SetA4,eorv,,004,,0.0-5.0-0.9,rove,4175.099999904633,SetA,SetA4,,999,190612,14,gram,,
353,SetA4,latnp,,014,,0.0-5.0-0.10,plant,3048.8999996185303,SetA,SetA4,,999,193661,15,gram,,
353,SetA4,hhaelt,,017,,0.0-5.0-0.11,health,4650.5,SetA,SetA4,,999,198314,16,gram,,
353,SetA4,eryv,,013,,0.0-5.0-0.12,very,2368.900000095367,SetA,SetA4,,999,200685,17,gram,,
353,SetA4,hemt,,066,,0.0-5.0-0.13,them,3617.199999809265,SetA,SetA4,,999,204303,18,gram,,
353,SetA4,iwll,,056,,0.0-5.0-0.14,will,2399.300000190735,SetA,SetA4,,999,206703,19,gram,,
353,SetA4,ysdtu,,044,,0.0-5.0-0.15,study,4647.10000038147,SetA,SetA4,,999,211351,20,gram,,
353,SetA4,onusd,,048,,0.0-5.0-0.16,sound,4359.400000095367,SetA,SetA4,,999,215711,21,gram,,
353,SetA4,ginaa,,024,,0.0-5.0-0.17,again,2792.400000095367,SetA,SetA4,,999,218504,22,gram,,
353,SetA4,bjecto,,022,,0.0-5.0-0.18,object,3952.300000190735,SetA,SetA4,,999,222457,23,gram,,
353,SetA4,omer,,043,,0.0-5.0-0.19,more,3736.0,SetA,SetA4,,999,226194,24,gram,,
353,SetA4,lilts,,003,,0.0-5.0-0.20,still,4086.599999904633,SetA,SetA4,,999,230281,25,gram,,
353,SetA4,gthir,,069,,0.0-5.0-0.21,girth,5249.0,SetA,SetA4,,999,235531,26,gram,,
353,SetA4,keelrn,,080,,0.0-5.0-0.22,renkle,68305.40000009537,SetA,SetA4,,999,303851,27,gram,,
353,SetA4,gtrae,,087,,0.0-5.0-0.23,great,3526.5,SetA,SetA4,,999,307378,28,gram,,
353,SetA4,eanrl,,005,,0.0-5.0-0.24,learn,3168.900000095367,SetA,SetA4,,999,310548,29,gram,,
353,SetA4,gltihf,,042,,0.0-5.0-0.25,flight,5767.5,SetA,SetA4,,999,316316,30,gram,,
353,SetA4,uebtay,,077,,0.0-5.0-0.26,beauty,35501.0,SetA,SetA4,,999,351818,31,gram,,
353,SetA4,mite,,019,,0.0-5.0-0.27,time,2375.699999809265,SetA,SetA4,,999,354194,32,gram,,
353,SetA4,tderes,,026,,0.0-5.0-0.28,rested,17313.699999809265,SetA,SetA4,,999,371508,33,gram,,
353,SetA4,przhye,,086,,0.0-5.0-0.29,zephyr,6776.300000190735,SetA,SetA4,,999,378285,34,gram,,
353,SetA4,,resting,,,0.0-6.0,0,22045.0,,,<p>Great job! You have completed the first block of trials.</p><p>Take a short break before continuing to the next block.</p>,999,400331,35,html-button-response,,
353,SetA4,ofndu,,072,,0.0-7.0-0.0,found,2860.8999996185303,SetA,SetA4,,999,403193,36,gram,,
353,SetA4,hwti,,050,,0.0-7.0-0.1,with,2567.5,SetA,SetA4,,999,405762,37,gram,,
353,SetA4,ufselu,,016,,0.0-7.0-0.2,useful,6711.900000095367,SetA,SetA4,,999,412474,38,gram,,
353,SetA4,osme,,023,,0.0-7.0-0.3,some,3127.0,SetA,SetA4,,999,415602,39,gram,,
353,SetA4,ffctee,,021,,0.0-7.0-0.4,effect,4865.10000038147,SetA,SetA4,,999,420468,40,gram,,
353,SetA4,tkea,,082,,0.0-7.0-0.5,take,3591.599999904633,SetA,SetA4,,999,424060,41,gram,,
353,SetA4,konw,,029,,0.0-7.0-0.6,know,3727.7000002861023,SetA,SetA4,,999,427789,42,gram,,
353,SetA4,grael,,018,,0.0-7.0-0.7,lager,18810.0,SetA,SetA4,,999,446600,43,gram,,
353,SetA4,txet,,084,,0.0-7.0-0.8,text,3039.5,SetA,SetA4,,999,449640,44,gram,,
353,SetA4,hotre,,047,,0.0-7.0-0.9,other,2687.699999809265,SetA,SetA4,,999,452328,45,gram,,
353,SetA4,eenrv,,089,,0.0-7.0-0.10,nerve,2568.0,SetA,SetA4,,999,454897,46,gram,,
353,SetA4,eclcri,,030,,0.0-7.0-0.11,circle,9968.400000095367,SetA,SetA4,,999,464866,47,gram,,
353,SetA4,sitrf,,068,,0.0-7.0-0.12,first,2959.699999809265,SetA,SetA4,,999,467827,48,gram,,
353,SetA4,lmsal,,067,,0.0-7.0-0.13,small,3999.8999996185303,SetA,SetA4,,999,471827,49,gram,,
353,SetA4,iansld,,065,,0.0-7.0-0.14,island,4295.400000095367,SetA,SetA4,,999,476124,50,gram,,
353,SetA4,enhw,,011,,0.0-7.0-0.15,when,2511.400000095367,SetA,SetA4,,999,478636,51,gram,,
353,SetA4,ktihn,,031,,0.0-7.0-0.16,think,11065.099999904633,SetA,SetA4,,999,489702,52,gram,,
353,SetA4,peleop,,039,,0.0-7.0-0.17,people,2767.199999809265,SetA,SetA4,,999,492470,53,gram,,
353,SetA4,ponti,,037,,0.0-7.0-0.18,point,7296.5,SetA,SetA4,,999,499767,54,gram,,
353,SetA4,heav,,046,,0.0-7.0-0.19,have,3327.900000095367,SetA,SetA4,,999,503096,55,gram,,
353,SetA4,gjlenu,,012,,0.0-7.0-0.20,jungle,5286.700000286102,SetA,SetA4,,999,508383,56,gram,,
353,SetA4,adorab,,007,,0.0-7.0-0.21,abroad,9338.099999904633,SetA,SetA4,,999,517722,57,gram,,
353,SetA4,mfor,,036,,0.0-7.0-0.22,from,2751.5,SetA,SetA4,,999,520474,58,gram,,
353,SetA4,sheet,,051,,0.0-7.0-0.23,these,3935.900000095367,SetA,SetA4,,999,524411,59,gram,,
353,SetA4,uhcm,,071,,0.0-7.0-0.24,much,2655.400000095367,SetA,SetA4,,999,527067,60,gram,,
353,SetA4,itno,,041,,0.0-7.0-0.25,into,4528.0,SetA,SetA4,,999,531596,61,gram,,
353,SetA4,uavcmu,,055,,0.0-7.0-0.26,vacuum,6255.900000095367,SetA,SetA4,,999,537852,62,gram,,
353,SetA4,oblwe,,073,,0.0-7.0-0.27,elbow,7896.800000190735,SetA,SetA4,,999,545750,63,gram,,
353,SetA4,azutrq,,054,,0.0-7.0-0.28,quartz,6704.200000286102,SetA,SetA4,,999,552455,64,gram,,
353,SetA4,daaemg,,075,,0.0-7.0-0.29,damage,11511.800000190737,SetA,SetA4,,999,563967,65,gram,,
353,SetA4,,resting,,,0.0-8.0,0,29555.0,,,<p>Great job! You have completed the second block of trials.</p><p>Take a short break before continuing to the final block.</p>,999,593523,66,html-button-response,,
353,SetA4,tahn,,088,,0.0-9.0-0.0,than,3440.800000190735,SetA,SetA4,,999,596965,67,gram,,
353,SetA4,trehe,,009,,0.0-9.0-0.1,there,3648.1000003814697,SetA,SetA4,,999,600614,68,gram,,
353,SetA4,leacp,,020,,0.0-9.0-0.2,place,3639.5,SetA,SetA4,,999,604254,69,gram,,
353,SetA4,oredcr,,079,,0.0-9.0-0.3,record,47454.300000190735,SetA,SetA4,,999,651709,70,gram,,
353,SetA4,evyre,,033,,0.0-9.0-0.4,every,2839.699999809265,SetA,SetA4,,999,654549,71,gram,,
353,SetA4,yeowll,,002,,0.0-9.0-0.5,yellow,2863.599999904633,SetA,SetA4,,999,657414,72,gram,,
353,SetA4,stmo,,083,,0.0-9.0-0.6,most,2343.300000190735,SetA,SetA4,,999,659758,73,gram,,
353,SetA4,ilervs,,006,,0.0-9.0-0.7,silver,3511.7999997138977,SetA,SetA4,,999,663271,74,gram,,
353,SetA4,dlqiui,,078,,0.0-9.0-0.8,liquid,3895.900000095367,SetA,SetA4,,999,667167,75,gram,,
353,SetA4,wdno,,090,,0.0-9.0-0.9,down,3255.599999904633,SetA,SetA4,,999,670424,76,gram,,
353,SetA4,erlvat,,076,,0.0-9.0-0.10,travel,6112.200000286102,SetA,SetA4,,999,676537,77,gram,,
353,SetA4,hwat,,040,,0.0-9.0-0.11,what,2567.599999904633,SetA,SetA4,,999,679105,78,gram,,
353,SetA4,ewtlha,,025,,0.0-9.0-0.12,wealth,4648.099999904633,SetA,SetA4,,999,683754,79,gram,,
353,SetA4,akbc,,052,,0.0-9.0-0.13,back,3663.0,SetA,SetA4,,999,687418,80,gram,,
353,SetA4,hgtin,,015,,0.0-9.0-0.14,thing,3632.2000002861023,SetA,SetA4,,999,691051,81,gram,,
353,SetA4,ygeren,,070,,0.0-9.0-0.15,energy,3527.699999809265,SetA,SetA4,,999,694579,82,gram,,
353,SetA4,dolcu,,038,,0.0-9.0-0.16,could,2791.6000003814697,SetA,SetA4,,999,697372,83,gram,,
353,SetA4,vgie,,035,,0.0-9.0-0.17,give,2423.300000190735,SetA,SetA4,,999,699796,84,gram,,
353,SetA4,llpse,,057,,0.0-9.0-0.18,spell,3135.099999904633,SetA,SetA4,,999,702932,85,gram,,
353,SetA4,beoav,,061,,0.0-9.0-0.19,above,4664.400000095367,SetA,SetA4,,999,707597,86,gram,,
353,SetA4,enht,,059,,0.0-9.0-0.20,then,2519.400000095367,SetA,SetA4,,999,710117,87,gram,,
353,SetA4,tyeh,,053,,0.0-9.0-0.21,they,3279.699999809265,SetA,SetA4,,999,713398,88,gram,,
353,SetA4,nhgace,,032,,0.0-9.0-0.22,change,6512.199999809265,SetA,SetA4,,999,719911,89,gram,,
353,SetA4,eehrt,,028,,0.0-9.0-0.23,three,4558.89999961853,SetA,SetA4,,999,724470,90,gram,,
353,SetA4,eatrf,,058,,0.0-9.0-0.24,after,16978.400000095367,SetA,SetA4,,999,741449,91,gram,,
353,SetA4,rwohgt,,081,,0.0-9.0-0.25,growth,27972.0,SetA,SetA4,,999,769422,92,gram,,
353,SetA4,saol,,008,,0.0-9.0-0.26,also,3479.900000095367,SetA,SetA4,,999,772903,93,gram,,
353,SetA4,emdtho,,062,,0.0-9.0-0.27,method,3791.699999809265,SetA,SetA4,,999,776695,94,gram,,
353,SetA4,otbau,,001,,0.0-9.0-0.28,about,4440.099999904633,SetA,SetA4,,999,781136,95,gram,,
353,SetA4,iethr,,010,,0.0-9.0-0.29,their,3543.800000190735,SetA,SetA4,,999,784680,96,gram,,
353,SetA4,,,,"[{""event"":""blur"",""trial"":0,""time"":31117},{""event"":""focus"",""trial"":0,""time"":37123}]",0.0-11.0,,13722.0,,,,999,877317,98,instructions,"[{'page_index': 0, 'viewing_time': 5144}, {'page_index': 1, 'viewing_time': 8577}]",
336,SetA,,,,,0.0-0.0,,35584.0,,,,999,35589,0,instructions,"[{'page_index': 0, 'viewing_time': 3160}, {'page_index': 1, 'viewing_time': 6484}, {'page_index': 2, 'viewing_time': 7728}, {'page_index': 3, 'viewing_time': 8397}, {'page_index': 4, 'viewing_time': 5776}, {'page_index': 5, 'viewing_time': 4039}]",
336,SetA,,consent,,,0.0-1.0,0,1424.0,,,"<p>By pressing continue below, I understand that I am consenting to participation in this research.</p>",999,37016,1,html-button-response,,
336,SetA,,,,,0.0-2.0,,18102.0,,,,999,55120,2,instructions,"[{'page_index': 0, 'viewing_time': 1952}, {'page_index': 1, 'viewing_time': 1279}, {'page_index': 2, 'viewing_time': 1466}, {'page_index': 3, 'viewing_time': 4694}, {'page_index': 4, 'viewing_time': 2282}, {'page_index': 5, 'viewing_time': 5530}, {'page_index': 6, 'viewing_time': 899}]",
336,SetA,rapctiec,,practice,,0.0-3.0,practice,5060.0,practice,practice,,999,60182,3,gram,,
336,SetA,,,,,0.0-4.0,,4291.0,,,,999,64473,4,instructions,"[{'page_index': 0, 'viewing_time': 1244}, {'page_index': 1, 'viewing_time': 1980}, {'page_index': 2, 'viewing_time': 1067}]",
336,SetA,otbau,,001,,0.0-5.0-0.0,batou,10485.999999999993,SetA,SetA1,,999,74961,5,gram,,
336,SetA,yeowll,,002,,0.0-5.0-0.1,yellow,2811.0,SetA,SetA1,,999,77773,6,gram,,
336,SetA,lilts,,003,,0.0-5.0-0.2,still,6110.0,SetA,SetA1,,999,83884,7,gram,,
336,SetA,eorv,,004,,0.0-5.0-0.3,rove,5806.999999999985,SetA,SetA1,,999,89693,8,gram,,
336,SetA,eanrl,,005,,0.0-5.0-0.4,learn,4510.0,SetA,SetA1,,999,94205,9,gram,,
336,SetA,ilervs,,006,,0.0-5.0-0.5,silver,2366.0,SetA,SetA1,,999,96572,10,gram,,
336,SetA,adorab,,007,,0.0-5.0-0.6,badora,38268.0,SetA,SetA1,,999,134842,11,gram,,
336,SetA,saol,,008,,0.0-5.0-0.7,laos,2818.0,SetA,SetA1,,999,137662,12,gram,,
336,SetA,trehe,,009,,0.0-5.0-0.8,three,4736.0,SetA,SetA1,,999,142399,13,gram,,
336,SetA,iethr,,010,,0.0-5.0-0.9,their,3598.0,SetA,SetA1,,999,145998,14,gram,,
336,SetA,enhw,,011,,0.0-5.0-0.10,when,1499.0,SetA,SetA1,,999,147498,15,gram,,
336,SetA,gjlenu,,012,,0.0-5.0-0.11,jungle,14745.0,SetA,SetA1,,999,162244,16,gram,,
336,SetA,eryv,,013,,0.0-5.0-0.12,very,2673.999999999971,SetA,SetA1,,999,164919,17,gram,,
336,SetA,latnp,,014,,0.0-5.0-0.13,plant,2341.0,SetA,SetA1,,999,167262,18,gram,,
336,SetA,hgtin,,015,,0.0-5.0-0.14,thing,4881.0,SetA,SetA1,,999,172144,19,gram,,
336,SetA,ufselu,,016,,0.0-5.0-0.15,useful,5230.0,SetA,SetA1,,999,177376,20,gram,,
336,SetA,hhaelt,,017,,0.0-5.0-0.16,health,22967.0,SetA,SetA1,,999,200344,21,gram,,
336,SetA,grael,,018,,0.0-5.0-0.17,large,7004.0,SetA,SetA1,,999,207350,22,gram,,
336,SetA,mite,,019,,0.0-5.0-0.18,time,3874.0,SetA,SetA1,,999,211224,23,gram,,
336,SetA,leacp,,020,,0.0-5.0-0.19,place,25200.0,SetA,SetA1,,999,236426,24,gram,,
336,SetA,ffctee,,021,,0.0-5.0-0.20,etecff,35724.0,SetA,SetA1,,999,272152,25,gram,,
336,SetA,bjecto,,022,,0.0-5.0-0.21,object,3015.0,SetA,SetA1,,999,275168,26,gram,,
336,SetA,osme,,023,,0.0-5.0-0.22,some,1938.0,SetA,SetA1,,999,277107,27,gram,,
336,SetA,ginaa,,024,,0.0-5.0-0.23,again,5600.0,SetA,SetA1,,999,282708,28,gram,,
336,SetA,ewtlha,,025,,0.0-5.0-0.24,wealth,6889.0,SetA,SetA1,,999,289599,29,gram,,
336,SetA,tderes,,026,,0.0-5.0-0.25,desert,10990.0,SetA,SetA1,,999,300590,30,gram,,
336,SetA,ncotai,,027,,0.0-5.0-0.26,tocnai,34422.0,SetA,SetA1,,999,335011,31,gram,,
336,SetA,eehrt,,028,,0.0-5.0-0.27,three,4366.0,SetA,SetA1,,999,339374,32,gram,,
336,SetA,konw,,029,,0.0-5.0-0.28,know,1428.0000000000582,SetA,SetA1,,999,340802,33,gram,,
336,SetA,eclcri,,030,,0.0-5.0-0.29,celeri,5900.0,SetA,SetA1,,999,346700,34,gram,,
336,SetA,,resting,,,0.0-6.0,0,68998.0,,,<p>Great job! You have completed the first block of trials.</p><p>Take a short break before continuing to the next block.</p>,999,415692,35,html-button-response,,
336,SetA,ktihn,,031,,0.0-7.0-0.0,think,4557.0,SetA,SetA1,,999,420250,36,gram,,
336,SetA,nhgace,,032,,0.0-7.0-0.1,change,9943.000000000058,SetA,SetA1,,999,430194,37,gram,,
336,SetA,evyre,,033,,0.0-7.0-0.2,every,3610.0,SetA,SetA1,,999,433806,38,gram,,
336,SetA,husoe,,034,,0.0-7.0-0.3,house,11926.999999999942,SetA,SetA1,,999,445734,39,gram,,
336,SetA,vgie,,035,,0.0-7.0-0.4,give,4127.000000000058,SetA,SetA1,,999,449863,40,gram,,
336,SetA,mfor,,036,,0.0-7.0-0.5,form,3493.0,SetA,SetA1,,999,453358,41,gram,,
336,SetA,ponti,,037,,0.0-7.0-0.6,piton,36752.0,SetA,SetA1,,999,490112,42,gram,,
336,SetA,dolcu,,038,,0.0-7.0-0.7,cloud,12751.0,SetA,SetA1,,999,502864,43,gram,,
336,SetA,peleop,,039,,0.0-7.0-0.8,people,3775.0,SetA,SetA1,,999,506641,44,gram,,
336,SetA,hwat,,040,,0.0-7.0-0.9,what,2149.999999999942,SetA,SetA1,,999,508791,45,gram,,
336,SetA,itno,,041,,0.0-7.0-0.10,noit,37958.0,SetA,SetA1,,999,546751,46,gram,,
336,SetA,gltihf,,042,,0.0-7.0-0.11,flight,21101.0,SetA,SetA1,,999,567853,47,gram,,
336,SetA,omer,,043,,0.0-7.0-0.12,rome,3447.0,SetA,SetA1,,999,571302,48,gram,,
336,SetA,ysdtu,,044,,0.0-7.0-0.13,study,3984.0,SetA,SetA1,,999,575287,49,gram,,
336,SetA,ttha,,045,,0.0-7.0-0.14,that,1485.0,SetA,SetA1,,999,576774,50,gram,,
336,SetA,heav,,046,,0.0-7.0-0.15,have,12451.0,SetA,SetA1,,999,589226,51,gram,,
336,SetA,hotre,,047,,0.0-7.0-0.16,throe,7827.0,SetA,SetA1,,999,597055,52,gram,,
336,SetA,onusd,,048,,0.0-7.0-0.17,sound,5973.0,SetA,SetA1,,999,603029,53,gram,,
336,SetA,antw,,049,,0.0-7.0-0.18,want,2210.0,SetA,SetA1,,999,605239,54,gram,,
336,SetA,hwti,,050,,0.0-7.0-0.19,with,2374.0,SetA,SetA1,,999,607615,55,gram,,
336,SetA,sheet,,051,,0.0-7.0-0.20,these,4192.0,SetA,SetA1,,999,611809,56,gram,,
336,SetA,akbc,,052,,0.0-7.0-0.21,back,2030.0000000001164,SetA,SetA1,,999,613840,57,gram,,
336,SetA,tyeh,,053,,0.0-7.0-0.22,they,1621.0,SetA,SetA1,,999,615462,58,gram,,
336,SetA,azutrq,,054,,0.0-7.0-0.23,quartz,6850.0,SetA,SetA1,,999,622313,59,gram,,
336,SetA,uavcmu,,055,,0.0-7.0-0.24,vacuum,7101.0,SetA,SetA1,,999,629415,60,gram,,
336,SetA,iwll,,056,,0.0-7.0-0.25,will,3839.999999999883,SetA,SetA1,,999,633257,61,gram,,
336,SetA,llpse,,057,,0.0-7.0-0.26,spell,9791.0,SetA,SetA1,,999,643049,62,gram,,
336,SetA,eatrf,,058,,0.0-7.0-0.27,featr,54316.0,SetA,SetA1,,999,697367,63,gram,,
336,SetA,enht,,059,,0.0-7.0-0.28,then,2518.0,SetA,SetA1,,999,699887,64,gram,,
336,SetA,tnurea,,060,,0.0-7.0-0.29,nature,58012.99999999988,SetA,SetA1,,999,757901,65,gram,,
336,SetA,,resting,,,0.0-8.0,0,10351.0,,,<p>Great job! You have completed the second block of trials.</p><p>Take a short break before continuing to the final block.</p>,999,768254,66,html-button-response,,
336,SetA,beoav,,061,,0.0-9.0-0.0,above,41550.0,SetA,SetA1,,999,809806,67,gram,,
336,SetA,emdtho,,062,,0.0-9.0-0.1,method,5095.0,SetA,SetA1,,999,814902,68,gram,,
336,SetA,oruy,,063,,0.0-9.0-0.2,your,2290.0,SetA,SetA1,,999,817193,69,gram,,
336,SetA,itsh,,064,,0.0-9.0-0.3,this,3847.0,SetA,SetA1,,999,821041,70,gram,,
336,SetA,iansld,,065,,0.0-9.0-0.4,island,3010.9999999998836,SetA,SetA1,,999,824054,71,gram,,
336,SetA,hemt,,066,,0.0-9.0-0.5,them,1802.0,SetA,SetA1,,999,825856,72,gram,,
336,SetA,lmsal,,067,,0.0-9.0-0.6,small,2618.0000000001164,SetA,SetA1,,999,828476,73,gram,,
336,SetA,sitrf,,068,,0.0-9.0-0.7,first,8144.0,SetA,SetA1,,999,836622,74,gram,,
336,SetA,gthir,,069,,0.0-9.0-0.8,girth,9181.0,SetA,SetA1,,999,845804,75,gram,,
336,SetA,ygeren,,070,,0.0-9.0-0.9,energy,7133.0,SetA,SetA1,,999,852939,76,gram,,
336,SetA,uhcm,,071,,0.0-9.0-0.10,chum,1857.0000000001164,SetA,SetA1,,999,854798,77,gram,,
336,SetA,ofndu,,072,,0.0-9.0-0.11,fondu,4007.0,SetA,SetA1,,999,858807,78,gram,,
336,SetA,oblwe,,073,,0.0-9.0-0.12,bowel,2423.0,SetA,SetA1,,999,861232,79,gram,,
336,SetA,rebeez,,074,,0.0-9.0-0.13,breeze,31632.000000000116,SetA,SetA1,,999,892864,80,gram,,
336,SetA,daaemg,,075,,0.0-9.0-0.14,damage,16725.000000000116,SetA,SetA1,,999,909591,81,gram,,
336,SetA,erlvat,,076,,0.0-9.0-0.15,travel,10635.0,SetA,SetA1,,999,920228,82,gram,,
336,SetA,uebtay,,077,,0.0-9.0-0.16,beauty,4896.000000000116,SetA,SetA1,,999,925125,83,gram,,
336,SetA,dlqiui,,078,,0.0-9.0-0.17,liquid,2635.0,SetA,SetA1,,999,927761,84,gram,,
336,SetA,oredcr,,079,,0.0-9.0-0.18,record,29508.0,SetA,SetA1,,999,957271,85,gram,,
336,SetA,keelrn,,080,,0.0-9.0-0.19,kernel,24956.0,SetA,SetA1,,999,982229,86,gram,,
336,SetA,rwohgt,,081,,0.0-9.0-0.20,growth,34651.0,SetA,SetA1,,999,1016882,87,gram,,
336,SetA,tkea,,082,,0.0-9.0-0.21,take,4137.0,SetA,SetA1,,999,1021020,88,gram,,
336,SetA,stmo,,083,,0.0-9.0-0.22,most,2691.9999999998836,SetA,SetA1,,999,1023713,89,gram,,
336,SetA,txet,,084,,0.0-9.0-0.23,text,1670.9999999997672,SetA,SetA1,,999,1025385,90,gram,,
336,SetA,lkie,,085,,0.0-9.0-0.24,like,1314.0000000001164,SetA,SetA1,,999,1026700,91,gram,,
336,SetA,przhye,,086,,0.0-9.0-0.25,zephyr,30468.0,SetA,SetA1,,999,1057170,92,gram,,
336,SetA,gtrae,,087,,0.0-9.0-0.26,great,2417.0,SetA,SetA1,,999,1059587,93,gram,,
336,SetA,tahn,,088,,0.0-9.0-0.27,than,1301.0,SetA,SetA1,,999,1060889,94,gram,,
336,SetA,eenrv,,089,,0.0-9.0-0.28,never,2622.000000000233,SetA,SetA1,,999,1063512,95,gram,,
336,SetA,wdno,,090,,0.0-9.0-0.29,down,2659.0,SetA,SetA1,,999,1066173,96,gram,,
336,SetA,,,,"[{""event"":""blur"",""trial"":97,""time"":1068324},{""event"":""focus"",""trial"":97,""time"":1070123},{""event"":""focus"",""trial"":97,""time"":1070125},{""event"":""blur"",""trial"":97,""time"":1076300},{""event"":""focus"",""trial"":97,""time"":1078415},{""event"":""focus"",""trial"":97,""time"":1078417},{""event"":""blur"",""trial"":97,""time"":1080764},{""event"":""focus"",""trial"":97,""time"":1084036},{""event"":""focus"",""trial"":97,""time"":1084038},{""event"":""blur"",""trial"":97,""time"":1086037},{""event"":""focus"",""trial"":97,""time"":1090844},{""event"":""focus"",""trial"":97,""time"":1090845},{""event"":""blur"",""trial"":97,""time"":1093480},{""event"":""focus"",""trial"":97,""time"":1095358},{""event"":""focus"",""trial"":97,""time"":1095360},{""event"":""blur"",""trial"":97,""time"":1101207},{""event"":""focus"",""trial"":97,""time"":1103187},{""event"":""focus"",""trial"":97,""time"":1103189},{""event"":""blur"",""trial"":97,""time"":1106495},{""event"":""focus"",""trial"":97,""time"":1109475},{""event"":""focus"",""trial"":97,""time"":1109477},{""event"":""blur"",""trial"":97,""time"":1114342},{""event"":""focus"",""trial"":97,""time"":1119788},{""event"":""focus"",""trial"":97,""time"":1119790},{""event"":""blur"",""trial"":97,""time"":1124637},{""event"":""focus"",""trial"":97,""time"":1130260},{""event"":""focus"",""trial"":97,""time"":1130262},{""event"":""blur"",""trial"":97,""time"":1132753},{""event"":""focus"",""trial"":97,""time"":1138095},{""event"":""focus"",""trial"":97,""time"":1138096},{""event"":""blur"",""trial"":97,""time"":1141969},{""event"":""focus"",""trial"":97,""time"":1146884},{""event"":""focus"",""trial"":97,""time"":1146886},{""event"":""blur"",""trial"":97,""time"":1149429},{""event"":""focus"",""trial"":97,""time"":1159815},{""event"":""focus"",""trial"":97,""time"":1159817},{""event"":""blur"",""trial"":97,""time"":1164290},{""event"":""focus"",""trial"":97,""time"":1169726},{""event"":""focus"",""trial"":97,""time"":1170008},{""event"":""blur"",""trial"":97,""time"":1173175},{""event"":""focus"",""trial"":97,""time"":1175548},{""event"":""focus"",""trial"":97,""time"":1175549}]",0.0-11.0,,6114.0,,,,999,1189948,98,instructions,"[{'page_index': 0, 'viewing_time': 3297}, {'page_index': 1, 'viewing_time': 2817}]",
335,SetC4,,,,,0.0-0.0,,77518.0,,,,999,77535,0,instructions,"[{'page_index': 0, 'viewing_time': 8052}, {'page_index': 1, 'viewing_time': 23899}, {'page_index': 2, 'viewing_time': 22197}, {'page_index': 3, 'viewing_time': 8611}, {'page_index': 4, 'viewing_time': 5818}, {'page_index': 5, 'viewing_time': 8940}]",
335,SetC4,,consent,,,0.0-1.0,0,2749.0,,,"<p>By pressing continue below, I understand that I am consenting to participation in this research.</p>",999,80285,1,html-button-response,,
335,SetC4,,,,,0.0-2.0,,57067.0,,,,999,137353,2,instructions,"[{'page_index': 0, 'viewing_time': 9612}, {'page_index': 1, 'viewing_time': 6561}, {'page_index': 2, 'viewing_time': 4861}, {'page_index': 3, 'viewing_time': 6060}, {'page_index': 4, 'viewing_time': 22620}, {'page_index': 5, 'viewing_time': 4697}, {'page_index': 6, 'viewing_time': 2656}]",
335,SetC4,rapctiec,,practice,,0.0-3.0,practice,24390.69999992847,practice,practice,,999,161746,3,gram,,
335,SetC4,,,,,0.0-4.0,,12048.0,,,,999,173794,4,instructions,"[{'page_index': 0, 'viewing_time': 3768}, {'page_index': 1, 'viewing_time': 4346}, {'page_index': 2, 'viewing_time': 3934}]",
335,SetC4,ceeap,,189,,0.0-5.0-0.0,peace,7548.199999928474,SetC,SetC4,,999,181344,5,gram,,
335,SetC4,roezfn,,244,,0.0-5.0-0.1,frozen,6062.0,SetC,SetC4,,999,187408,6,gram,,
335,SetC4,ghnti,,228,,0.0-5.0-0.2,night,4663.099999904633,SetC,SetC4,,999,192072,7,gram,,
335,SetC4,oattl,,212,,0.0-5.0-0.3,total,9247.100000023842,SetC,SetC4,,999,201320,8,gram,,
335,SetC4,owsh,,261,,0.0-5.0-0.4,show,3559.0,SetC,SetC4,,999,204880,9,gram,,
335,SetC4,amyn,,181,,0.0-5.0-0.5,many,17150.799999952316,SetC,SetC4,,999,222032,10,gram,,
335,SetC4,arint,,270,,0.0-5.0-0.6,train,6055.099999904633,SetC,SetC4,,999,228088,11,gram,,
335,SetC4,datoy,,204,,0.0-5.0-0.7,today,3791.1999999284744,SetC,SetC4,,999,231880,12,gram,,
335,SetC4,eahtr,,224,,0.0-5.0-0.8,reath,83566.09999990463,SetC,SetC4,,999,315446,13,gram,,
335,SetC4,nadelc,,210,,0.0-5.0-0.9,candle,12094.899999976158,SetC,SetC4,,999,327542,14,gram,,
335,SetC4,dheta,,235,,0.0-5.0-0.10,death,9983.100000023842,SetC,SetC4,,999,337526,15,gram,,
335,SetC4,othrs,,248,,0.0-5.0-0.11,short,10927.100000023842,SetC,SetC4,,999,348454,16,gram,,
335,SetC4,tintek,,191,,0.0-5.0-0.12,kitten,18575.599999904633,SetC,SetC4,,999,367030,17,gram,,
335,SetC4,stiesu,,268,,0.0-5.0-0.13,suites,21743.200000047684,SetC,SetC4,,999,388774,18,gram,,
335,SetC4,dahn,,266,,0.0-5.0-0.14,hand,4470.299999952316,SetC,SetC4,,999,393245,19,gram,,
335,SetC4,ensev,,190,,0.0-5.0-0.15,seven,4639.100000023842,SetC,SetC4,,999,397885,20,gram,,
335,SetC4,eeagul,,243,,0.0-5.0-0.16,league,20543.10000002384,SetC,SetC4,,999,418429,21,gram,,
335,SetC4,htire,,184,,0.0-5.0-0.17,their,7695.200000047684,SetC,SetC4,,999,426125,22,gram,,
335,SetC4,retmka,,233,,0.0-5.0-0.18,market,8887.0,SetC,SetC4,,999,435013,23,gram,,
335,SetC4,ypatr,,222,,0.0-5.0-0.19,party,5087.100000023842,SetC,SetC4,,999,440101,24,gram,,
335,SetC4,npal,,256,,0.0-5.0-0.20,plan,5911.200000047684,SetC,SetC4,,999,446013,25,gram,,
335,SetC4,apictm,,247,,0.0-5.0-0.21,mantic,111861.89999997616,SetC,SetC4,,999,557876,26,gram,,
335,SetC4,iebozm,,218,,0.0-5.0-0.22,zombie,33670.799999952316,SetC,SetC4,,999,591547,27,gram,,
335,SetC4,srhfe,,197,,0.0-5.0-0.23,fresh,10839.199999928474,SetC,SetC4,,999,602387,28,gram,,
335,SetC4,opcy,,257,,0.0-5.0-0.24,copy,3551.0,SetC,SetC4,,999,605939,29,gram,,
335,SetC4,unaitq,,186,,0.0-5.0-0.25,quaint,6183.299999952316,SetC,SetC4,,999,612123,30,gram,,
335,SetC4,yodb,,264,,0.0-5.0-0.26,body,3223.2000000476837,SetC,SetC4,,999,615347,31,gram,,
335,SetC4,llwyeo,,223,,0.0-5.0-0.27,yellow,9159.200000047684,SetC,SetC4,,999,624507,32,gram,,
335,SetC4,erhte,,258,,0.0-5.0-0.28,there,3343.3000000715256,SetC,SetC4,,999,627851,33,gram,,
335,SetC4,matoun,,249,,0.0-5.0-0.29,amount,8375.100000023842,SetC,SetC4,,999,636227,34,gram,,
335,SetC4,,resting,,,0.0-6.0,0,22679.0,,,<p>Great job! You have completed the first block of trials.</p><p>Take a short break before continuing to the next block.</p>,999,658907,35,html-button-response,,
335,SetC4,eurt,,250,,0.0-7.0-0.0,true,3446.899999976158,SetC,SetC4,,999,662354,36,gram,,
335,SetC4,ifon,,239,,0.0-7.0-0.1,fion,64502.60000002384,SetC,SetC4,,999,726858,37,gram,,
335,SetC4,nhakt,,193,,0.0-7.0-0.2,thank,4655.099999904633,SetC,SetC4,,999,731513,38,gram,,
335,SetC4,ehrat,,195,,0.0-7.0-0.3,reath,31031.0,SetC,SetC4,,999,762545,39,gram,,
335,SetC4,ekew,,263,,0.0-7.0-0.4,week,3535.0,SetC,SetC4,,999,766081,40,gram,,
335,SetC4,leovit,,183,,0.0-7.0-0.5,violet,18359.0,SetC,SetC4,,999,784441,41,gram,,
335,SetC4,arnrwo,,252,,0.0-7.0-0.6,narrow,19806.89999997616,SetC,SetC4,,999,804249,42,gram,,
335,SetC4,ontesh,,254,,0.0-7.0-0.7,shento,100902.19999992847,SetC,SetC4,,999,905151,43,gram,,
335,SetC4,otmnh,,227,,0.0-7.0-0.8,month,12455.0,SetC,SetC4,,999,917607,44,gram,,
335,SetC4,rtidh,,206,,0.0-7.0-0.9,third,11911.200000047684,SetC,SetC4,,999,929519,45,gram,,
335,SetC4,gspsoi,,246,,0.0-7.0-0.10,gossip,5247.100000023842,SetC,SetC4,,999,934767,46,gram,,
335,SetC4,lsat,,202,,0.0-7.0-0.11,last,8551.199999928474,SetC,SetC4,,999,943319,47,gram,,
335,SetC4,enses,,199,,0.0-7.0-0.12,sense,3279.1999999284744,SetC,SetC4,,999,946599,48,gram,,
335,SetC4,ameg,,203,,0.0-7.0-0.13,mega,3791.0,SetC,SetC4,,999,950391,49,gram,,
335,SetC4,iwve,,260,,0.0-7.0-0.14,wive,4623.100000023842,SetC,SetC4,,999,955015,50,gram,,
335,SetC4,orad,,242,,0.0-7.0-0.15,road,5231.300000071526,SetC,SetC4,,999,960247,51,gram,,
335,SetC4,estt,,245,,0.0-7.0-0.16,test,2319.0,SetC,SetC4,,999,962567,52,gram,,
335,SetC4,odrpu,,225,,0.0-7.0-0.17,proud,6551.299999952316,SetC,SetC4,,999,969119,53,gram,,
335,SetC4,ecipe,,220,,0.0-7.0-0.18,piece,5710.899999976158,SetC,SetC4,,999,974831,54,gram,,
335,SetC4,ddceea,,238,,0.0-7.0-0.19,decade,73086.60000002384,SetC,SetC4,,999,1047918,55,gram,,
335,SetC4,shxti,,226,,0.0-7.0-0.20,sixth,51270.5,SetC,SetC4,,999,1099189,56,gram,,
335,SetC4,alshl,,237,,0.0-7.0-0.21,shall,8599.100000023842,SetC,SetC4,,999,1107789,57,gram,,
335,SetC4,rerntu,,219,,0.0-7.0-0.22,return,20295.0,SetC,SetC4,,999,1128085,58,gram,,
335,SetC4,inecs,,211,,0.0-7.0-0.23,since,117757.80000007153,SetC,SetC4,,999,1245844,59,gram,,
335,SetC4,rteta,,221,,0.0-7.0-0.24,treat,10550.899999976158,SetC,SetC4,,999,1256396,60,gram,,
335,SetC4,enurgt,,236,,0.0-7.0-0.25,tregun,84654.20000004768,SetC,SetC4,,999,1341051,61,gram,,
335,SetC4,lrati,,214,,0.0-7.0-0.26,trial,10903.0,SetC,SetC4,,999,1351954,62,gram,,
335,SetC4,eedgln,,198,,0.0-7.0-0.27,legend,17167.099999904633,SetC,SetC4,,999,1369122,63,gram,,
335,SetC4,nilfa,,269,,0.0-7.0-0.28,final,7263.299999952316,SetC,SetC4,,999,1376386,64,gram,,
335,SetC4,sace,,230,,0.0-7.0-0.29,case,4047.0,SetC,SetC4,,999,1380434,65,gram,,
335,SetC4,,resting,,,0.0-8.0,0,35020.0,,,<p>Great job! You have completed the second block of trials.</p><p>Take a short break before continuing to the final block.</p>,999,1415454,66,html-button-response,,
335,SetC4,lelt,,217,,0.0-9.0-0.0,tell,3953.899999976158,SetC,SetC4,,999,1419409,67,gram,,
335,SetC4,patten,,251,,0.0-9.0-0.1,patent,12094.899999976158,SetC,SetC4,,999,1431505,68,gram,,
335,SetC4,eotn,,201,,0.0-9.0-0.2,tone,2695.100000023842,SetC,SetC4,,999,1434201,69,gram,,
335,SetC4,reac,,234,,0.0-9.0-0.3,care,3423.100000023842,SetC,SetC4,,999,1437625,70,gram,,
335,SetC4,stei,,265,,0.0-9.0-0.4,site,10447.199999928474,SetC,SetC4,,999,1448073,71,gram,,
335,SetC4,lmsiep,,241,,0.0-9.0-0.5,impels,31950.89999997616,SetC,SetC4,,999,1480025,72,gram,,
335,SetC4,mtos,,253,,0.0-9.0-0.6,most,3431.0,SetC,SetC4,,999,1483456,73,gram,,
335,SetC4,cabneo,,185,,0.0-9.0-0.7,beacon,217836.89999997616,SetC,SetC4,,999,1701294,74,gram,,
335,SetC4,emta,,209,,0.0-9.0-0.8,team,3919.299999952316,SetC,SetC4,,999,1705214,75,gram,,
335,SetC4,magtne,,194,,0.0-9.0-0.9,magnet,5367.0,SetC,SetC4,,999,1710582,76,gram,,
335,SetC4,nithk,,208,,0.0-9.0-0.10,think,3415.100000023842,SetC,SetC4,,999,1713998,77,gram,,
335,SetC4,utcoh,,255,,0.0-9.0-0.11,touch,8503.200000047684,SetC,SetC4,,999,1722502,78,gram,,
335,SetC4,tsco,,196,,0.0-9.0-0.12,cost,2303.3000000715256,SetC,SetC4,,999,1724806,79,gram,,
335,SetC4,ieda,,262,,0.0-9.0-0.13,idea,6383.400000095367,SetC,SetC4,,999,1731190,80,gram,,
335,SetC4,ydikne,,259,,0.0-9.0-0.14,kidney,7759.0,SetC,SetC4,,999,1738949,81,gram,,
335,SetC4,mhoe,,240,,0.0-9.0-0.15,home,3727.299999952316,SetC,SetC4,,999,1742678,82,gram,,
335,SetC4,rthib,,200,,0.0-9.0-0.16,birth,4175.100000023842,SetC,SetC4,,999,1746854,83,gram,,
335,SetC4,nwrche,,232,,0.0-9.0-0.17,wrench,7479.200000047684,SetC,SetC4,,999,1754334,84,gram,,
335,SetC4,ehar,,182,,0.0-9.0-0.18,hare,5167.0,SetC,SetC4,,999,1759502,85,gram,,
335,SetC4,eljgug,,229,,0.0-9.0-0.19,juggle,5583.200000047684,SetC,SetC4,,999,1765086,86,gram,,
335,SetC4,cnevio,,213,,0.0-9.0-0.20,conive,106478.0,SetC,SetC4,,999,1871564,87,gram,,
335,SetC4,htorn,,215,,0.0-9.0-0.21,thorn,5135.399999976158,SetC,SetC4,,999,1876700,88,gram,,
335,SetC4,itaw,,267,,0.0-9.0-0.22,wait,3790.899999976158,SetC,SetC4,,999,1880492,89,gram,,
335,SetC4,oxpetr,,216,,0.0-9.0-0.23,export,15711.100000023842,SetC,SetC4,,999,1896204,90,gram,,
335,SetC4,lbea,,188,,0.0-9.0-0.24,bale,5055.299999952316,SetC,SetC4,,999,1901260,91,gram,,
335,SetC4,oeph,,205,,0.0-9.0-0.25,hope,3503.1999999284744,SetC,SetC4,,999,1904764,92,gram,,
335,SetC4,btse,,192,,0.0-9.0-0.26,best,5847.299999952316,SetC,SetC4,,999,1910611,93,gram,,
335,SetC4,feil,,187,,0.0-9.0-0.27,life,6343.199999928474,SetC,SetC4,,999,1916955,94,gram,,
335,SetC4,ujrion,,207,,0.0-9.0-0.28,junior,116333.79999995232,SetC,SetC4,,999,2033290,95,gram,,
335,SetC4,onreag,,231,,0.0-9.0-0.29,orange,80782.29999995232,SetC,SetC4,,999,2114073,96,gram,,
335,SetC4,,,,"[{""event"":""blur"",""trial"":97,""time"":2118693},{""event"":""focus"",""trial"":97,""time"":2130350},{""event"":""blur"",""trial"":97,""time"":2133931},{""event"":""focus"",""trial"":97,""time"":2141876},{""event"":""blur"",""trial"":97,""time"":2153988},{""event"":""focus"",""trial"":97,""time"":2159419},{""event"":""blur"",""trial"":97,""time"":2165942},{""event"":""focus"",""trial"":97,""time"":2171937},{""event"":""blur"",""trial"":97,""time"":2176697},{""event"":""focus"",""trial"":97,""time"":2180118},{""event"":""blur"",""trial"":97,""time"":2187256},{""event"":""focus"",""trial"":97,""time"":2197812},{""event"":""blur"",""trial"":97,""time"":2215275},{""event"":""focus"",""trial"":97,""time"":2219569},{""event"":""blur"",""trial"":97,""time"":2226672},{""event"":""focus"",""trial"":97,""time"":2235635},{""event"":""blur"",""trial"":97,""time"":2242714},{""event"":""focus"",""trial"":97,""time"":2318218}]",0.0-11.0,,15599.0,,,,999,2343095,98,instructions,"[{'page_index': 0, 'viewing_time': 9405}, {'page_index': 1, 'viewing_time': 6194}]",
351,SetC4,,,,,0.0-0.0,,122789.0,,,,999,122799,0,instructions,"[{'page_index': 0, 'viewing_time': 3826}, {'page_index': 1, 'viewing_time': 55973}, {'page_index': 2, 'viewing_time': 34640}, {'page_index': 3, 'viewing_time': 21256}, {'page_index': 4, 'viewing_time': 4027}, {'page_index': 5, 'viewing_time': 3067}]",
351,SetC4,,consent,,,0.0-1.0,0,4350.0,,,"<p>By pressing continue below, I understand that I am consenting to participation in this research.</p>",999,127151,1,html-button-response,,
351,SetC4,,,,,0.0-2.0,,41713.0,,,,999,168865,2,instructions,"[{'page_index': 0, 'viewing_time': 5041}, {'page_index': 1, 'viewing_time': 4783}, {'page_index': 2, 'viewing_time': 2990}, {'page_index': 3, 'viewing_time': 12924}, {'page_index': 4, 'viewing_time': 5382}, {'page_index': 5, 'viewing_time': 8527}, {'page_index': 6, 'viewing_time': 2065}]",
351,SetC4,rapctiec,,practice,,0.0-3.0,practice,8793.400000035763,practice,practice,,999,177660,3,gram,,
351,SetC4,,,,,0.0-4.0,,16565.0,,,,999,194225,4,instructions,"[{'page_index': 0, 'viewing_time': 3574}, {'page_index': 1, 'viewing_time': 10592}, {'page_index': 2, 'viewing_time': 2399}]",
351,SetC4,ceeap,,189,,0.0-5.0-0.0,peace,8124.5,SetC,SetC4,,999,202351,5,gram,,
351,SetC4,roezfn,,244,,0.0-5.0-0.1,frozen,4542.199999988079,SetC,SetC4,,999,206895,6,gram,,
351,SetC4,ghnti,,228,,0.0-5.0-0.2,night,3824.199999988079,SetC,SetC4,,999,210720,7,gram,,
351,SetC4,oattl,,212,,0.0-5.0-0.3,total,5094.300000011921,SetC,SetC4,,999,215815,8,gram,,
351,SetC4,owsh,,261,,0.0-5.0-0.4,show,4642.800000011921,SetC,SetC4,,999,220459,9,gram,,
351,SetC4,amyn,,181,,0.0-5.0-0.5,many,24488.900000035763,SetC,SetC4,,999,244949,10,gram,,
351,SetC4,arint,,270,,0.0-5.0-0.6,train,15476.099999964235,SetC,SetC4,,999,260426,11,gram,,
351,SetC4,datoy,,204,,0.0-5.0-0.7,today,6123.699999988079,SetC,SetC4,,999,266550,12,gram,,
351,SetC4,eahtr,,224,,0.0-5.0-0.8,earth,5100.700000047684,SetC,SetC4,,999,271651,13,gram,,
351,SetC4,nadelc,,210,,0.0-5.0-0.9,candel,26272.39999997616,SetC,SetC4,,999,297925,14,gram,,
351,SetC4,dheta,,235,,0.0-5.0-0.10,death,6536.5,SetC,SetC4,,999,304462,15,gram,,
351,SetC4,othrs,,248,,0.0-5.0-0.11,short,18602.69999998808,SetC,SetC4,,999,323065,16,gram,,
351,SetC4,tintek,,191,,0.0-5.0-0.12,kitten,66579.60000002384,SetC,SetC4,,999,389646,17,gram,,
351,SetC4,stiesu,,268,,0.0-5.0-0.13,suite,20911.80000001192,SetC,SetC4,,999,410558,18,gram,,
351,SetC4,dahn,,266,,0.0-5.0-0.14,hand,3754.199999988079,SetC,SetC4,,999,414313,19,gram,,
351,SetC4,ensev,,190,,0.0-5.0-0.15,evens,29222.80000001192,SetC,SetC4,,999,443536,20,gram,,
351,SetC4,eeagul,,243,,0.0-5.0-0.16,league,39715.60000002384,SetC,SetC4,,999,483253,21,gram,,
351,SetC4,htire,,184,,0.0-5.0-0.17,their,33468.10000002384,SetC,SetC4,,999,516721,22,gram,,
351,SetC4,retmka,,233,,0.0-5.0-0.18,market,14067.80000001192,SetC,SetC4,,999,530790,23,gram,,
351,SetC4,ypatr,,222,,0.0-5.0-0.19,party,4850.600000023842,SetC,SetC4,,999,535641,24,gram,,
351,SetC4,npal,,256,,0.0-5.0-0.20,plan,4045.199999988079,SetC,SetC4,,999,539687,25,gram,,
351,SetC4,apictm,,247,,0.0-5.0-0.21,impact,19624.80000001192,SetC,SetC4,,999,559312,26,gram,,
351,SetC4,iebozm,,218,,0.0-5.0-0.22,zombie,16395.0,SetC,SetC4,,999,575708,27,gram,,
351,SetC4,srhfe,,197,,0.0-5.0-0.23,fresh,8131.399999976158,SetC,SetC4,,999,583840,28,gram,,
351,SetC4,opcy,,257,,0.0-5.0-0.24,copy,6717.5,SetC,SetC4,,999,590558,29,gram,,
351,SetC4,unaitq,,186,,0.0-5.0-0.25,quaint,4861.099999964237,SetC,SetC4,,999,595420,30,gram,,
351,SetC4,yodb,,264,,0.0-5.0-0.26,body,3129.5,SetC,SetC4,,999,598550,31,gram,,
351,SetC4,llwyeo,,223,,0.0-5.0-0.27,yellow,3617.899999976158,SetC,SetC4,,999,602169,32,gram,,
351,SetC4,erhte,,258,,0.0-5.0-0.28,there,3853.800000011921,SetC,SetC4,,999,606023,33,gram,,
351,SetC4,matoun,,249,,0.0-5.0-0.29,amount,17152.19999998808,SetC,SetC4,,999,623176,34,gram,,
351,SetC4,,resting,,,0.0-6.0,0,7779.0,,,<p>Great job! You have completed the first block of trials.</p><p>Take a short break before continuing to the next block.</p>,999,630956,35,html-button-response,,
351,SetC4,eurt,,250,,0.0-7.0-0.0,true,4461.100000023842,SetC,SetC4,,999,635418,36,gram,,
351,SetC4,ifon,,239,,0.0-7.0-0.1,info,21266.5,SetC,SetC4,,999,656685,37,gram,,
351,SetC4,nhakt,,193,,0.0-7.0-0.2,thank,5309.699999988079,SetC,SetC4,,999,661996,38,gram,,
351,SetC4,ehrat,,195,,0.0-7.0-0.3,threat,6441.0,SetC,SetC4,,999,668437,39,gram,,
351,SetC4,ekew,,263,,0.0-7.0-0.4,week,4378.599999964237,SetC,SetC4,,999,672816,40,gram,,
351,SetC4,leovit,,183,,0.0-7.0-0.5,violet,19471.60000002384,SetC,SetC4,,999,692289,41,gram,,
351,SetC4,arnrwo,,252,,0.0-7.0-0.6,narrow,8082.699999988079,SetC,SetC4,,999,700372,42,gram,,
351,SetC4,ontesh,,254,,0.0-7.0-0.7,honest,24873.0,SetC,SetC4,,999,725246,43,gram,,
351,SetC4,otmnh,,227,,0.0-7.0-0.8,month,3954.600000023842,SetC,SetC4,,999,729201,44,gram,,
351,SetC4,rtidh,,206,,0.0-7.0-0.9,drift,21463.799999952316,SetC,SetC4,,999,750666,45,gram,,
351,SetC4,gspsoi,,246,,0.0-7.0-0.10,gossip,25198.5,SetC,SetC4,,999,775865,46,gram,,
351,SetC4,lsat,,202,,0.0-7.0-0.11,last,2095.699999988079,SetC,SetC4,,999,777961,47,gram,,
351,SetC4,enses,,199,,0.0-7.0-0.12,sense,4954.0,SetC,SetC4,,999,782915,48,gram,,
351,SetC4,ameg,,203,,0.0-7.0-0.13,game,3579.400000035763,SetC,SetC4,,999,786495,49,gram,,
351,SetC4,iwve,,260,,0.0-7.0-0.14,wive,3078.5,SetC,SetC4,,999,789575,50,gram,,
351,SetC4,orad,,242,,0.0-7.0-0.15,road,9534.899999976158,SetC,SetC4,,999,799111,51,gram,,
351,SetC4,estt,,245,,0.0-7.0-0.16,test,3115.399999976158,SetC,SetC4,,999,802227,52,gram,,
351,SetC4,odrpu,,225,,0.0-7.0-0.17,proud,7270.800000011921,SetC,SetC4,,999,809499,53,gram,,
351,SetC4,ecipe,,220,,0.0-7.0-0.18,piece,8799.5,SetC,SetC4,,999,818299,54,gram,,
351,SetC4,ddceea,,238,,0.0-7.0-0.19,decade,25335.0,SetC,SetC4,,999,843636,55,gram,,
351,SetC4,shxti,,226,,0.0-7.0-0.20,sixth,5429.899999976158,SetC,SetC4,,999,849066,56,gram,,
351,SetC4,alshl,,237,,0.0-7.0-0.21,shall,8094.799999952316,SetC,SetC4,,999,857162,57,gram,,
351,SetC4,rerntu,,219,,0.0-7.0-0.22,return,4317.699999988079,SetC,SetC4,,999,861480,58,gram,,
351,SetC4,inecs,,211,,0.0-7.0-0.23,since,4193.899999976158,SetC,SetC4,,999,865675,59,gram,,
351,SetC4,rteta,,221,,0.0-7.0-0.24,treat,3510.899999976158,SetC,SetC4,,999,869186,60,gram,,
351,SetC4,enurgt,,236,,0.0-7.0-0.25,urgent,29766.60000002384,SetC,SetC4,,999,898954,61,gram,,
351,SetC4,lrati,,214,,0.0-7.0-0.26,trail,7245.5,SetC,SetC4,,999,906200,62,gram,,
351,SetC4,eedgln,,198,,0.0-7.0-0.27,legend,5633.100000023842,SetC,SetC4,,999,911834,63,gram,,
351,SetC4,nilfa,,269,,0.0-7.0-0.28,final,23250.89999997616,SetC,SetC4,,999,935085,64,gram,,
351,SetC4,sace,,230,,0.0-7.0-0.29,case,4926.400000035763,SetC,SetC4,,999,940012,65,gram,,
351,SetC4,,resting,,,0.0-8.0,0,10867.0,,,<p>Great job! You have completed the second block of trials.</p><p>Take a short break before continuing to the final block.</p>,999,950880,66,html-button-response,,
351,SetC4,lelt,,217,,0.0-9.0-0.0,tell,11135.100000023842,SetC,SetC4,,999,962017,67,gram,,
351,SetC4,patten,,251,,0.0-9.0-0.1,patten,23715.10000002384,SetC,SetC4,,999,985733,68,gram,,
351,SetC4,eotn,,201,,0.0-9.0-0.2,tone,2583.300000011921,SetC,SetC4,,999,988317,69,gram,,
351,SetC4,reac,,234,,0.0-9.0-0.3,race,2087.100000023842,SetC,SetC4,,999,990404,70,gram,,
351,SetC4,stei,,265,,0.0-9.0-0.4,site,7947.900000035763,SetC,SetC4,,999,998353,71,gram,,
351,SetC4,lmsiep,,241,,0.0-9.0-0.5,simple,26855.599999964237,SetC,SetC4,,999,1025209,72,gram,,
351,SetC4,mtos,,253,,0.0-9.0-0.6,most,2397.900000035763,SetC,SetC4,,999,1027608,73,gram,,
351,SetC4,cabneo,,185,,0.0-9.0-0.7,beacon,21616.700000047684,SetC,SetC4,,999,1049225,74,gram,,
351,SetC4,emta,,209,,0.0-9.0-0.8,team,3312.199999988079,SetC,SetC4,,999,1052538,75,gram,,
351,SetC4,magtne,,194,,0.0-9.0-0.9,magnet,3748.5,SetC,SetC4,,999,1056287,76,gram,,
351,SetC4,nithk,,208,,0.0-9.0-0.10,think,2931.099999964237,SetC,SetC4,,999,1059219,77,gram,,
351,SetC4,utcoh,,255,,0.0-9.0-0.11,couth,4306.5,SetC,SetC4,,999,1063526,78,gram,,
351,SetC4,tsco,,196,,0.0-9.0-0.12,cost,2929.599999964237,SetC,SetC4,,999,1066456,79,gram,,
351,SetC4,ieda,,262,,0.0-9.0-0.13,idea,2486.2000000476837,SetC,SetC4,,999,1068943,80,gram,,
351,SetC4,ydikne,,259,,0.0-9.0-0.14,dinkey,6088.600000023842,SetC,SetC4,,999,1075033,81,gram,,
351,SetC4,mhoe,,240,,0.0-9.0-0.15,home,2935.5,SetC,SetC4,,999,1077969,82,gram,,
351,SetC4,rthib,,200,,0.0-9.0-0.16,birth,3053.399999976158,SetC,SetC4,,999,1081023,83,gram,,
351,SetC4,nwrche,,232,,0.0-9.0-0.17,wrench,7100.899999976158,SetC,SetC4,,999,1088125,84,gram,,
351,SetC4,ehar,,182,,0.0-9.0-0.18,hear,2819.699999988079,SetC,SetC4,,999,1090945,85,gram,,
351,SetC4,eljgug,,229,,0.0-9.0-0.19,juggle,7980.199999988079,SetC,SetC4,,999,1098926,86,gram,,
351,SetC4,cnevio,,213,,0.0-9.0-0.20,novice,32258.0,SetC,SetC4,,999,1131184,87,gram,,
351,SetC4,htorn,,215,,0.0-9.0-0.21,thorn,2609.599999964237,SetC,SetC4,,999,1133795,88,gram,,
351,SetC4,itaw,,267,,0.0-9.0-0.22,wait,2530.099999964237,SetC,SetC4,,999,1136325,89,gram,,
351,SetC4,oxpetr,,216,,0.0-9.0-0.23,export,12327.599999964235,SetC,SetC4,,999,1148653,90,gram,,
351,SetC4,lbea,,188,,0.0-9.0-0.24,able,19603.5,SetC,SetC4,,999,1168257,91,gram,,
351,SetC4,oeph,,205,,0.0-9.0-0.25,hope,12811.899999976158,SetC,SetC4,,999,1181070,92,gram,,
351,SetC4,btse,,192,,0.0-9.0-0.26,best,3641.5,SetC,SetC4,,999,1184712,93,gram,,
351,SetC4,feil,,187,,0.0-9.0-0.27,life,3373.599999964237,SetC,SetC4,,999,1188086,94,gram,,
351,SetC4,ujrion,,207,,0.0-9.0-0.28,junior,15407.700000047684,SetC,SetC4,,999,1203495,95,gram,,
351,SetC4,onreag,,231,,0.0-9.0-0.29,orange,5090.300000011921,SetC,SetC4,,999,1208586,96,gram,,
351,SetC4,,,,"[{""event"":""focus"",""trial"":0,""time"":389},{""event"":""blur"",""trial"":97,""time"":1220099},{""event"":""focus"",""trial"":97,""time"":1224355},{""event"":""blur"",""trial"":97,""time"":1239441},{""event"":""focus"",""trial"":97,""time"":1259253},{""event"":""blur"",""trial"":97,""time"":1266393},{""event"":""focus"",""trial"":97,""time"":1274837},{""event"":""blur"",""trial"":97,""time"":1281140},{""event"":""focus"",""trial"":97,""time"":1318227},{""event"":""blur"",""trial"":97,""time"":1326362},{""event"":""focus"",""trial"":97,""time"":1331191},{""event"":""blur"",""trial"":97,""time"":1340382},{""event"":""focus"",""trial"":97,""time"":1358269},{""event"":""blur"",""trial"":97,""time"":1367062},{""event"":""focus"",""trial"":97,""time"":1379628},{""event"":""blur"",""trial"":97,""time"":1402482},{""event"":""focus"",""trial"":97,""time"":1424131}]",0.0-11.0,,10905.0,,,,999,1447751,98,instructions,"[{'page_index': 0, 'viewing_time': 7560}, {'page_index': 1, 'viewing_time': 3344}]",
334,SetC2,,,,,0.0-0.0,,608744.0,,,,999,608766,0,instructions,"[{'page_index': 0, 'viewing_time': 5183}, {'page_index': 1, 'viewing_time': 475157}, {'page_index': 2, 'viewing_time': 9755}, {'page_index': 3, 'viewing_time': 113433}, {'page_index': 4, 'viewing_time': 2552}, {'page_index': 5, 'viewing_time': 2661}]",
334,SetC2,,consent,,,0.0-1.0,0,5198.0,,,"<p>By pressing continue below, I understand that I am consenting to participation in this research.</p>",999,613974,1,html-button-response,,
334,SetC2,,,,,0.0-2.0,,29897.0,,,,999,643873,2,instructions,"[{'page_index': 0, 'viewing_time': 3479}, {'page_index': 1, 'viewing_time': 4534}, {'page_index': 2, 'viewing_time': 2234}, {'page_index': 3, 'viewing_time': 5936}, {'page_index': 4, 'viewing_time': 4391}, {'page_index': 5, 'viewing_time': 7741}, {'page_index': 6, 'viewing_time': 1581}]",
334,SetC2,rapctiec,,practice,,0.0-3.0,practice,15079.0,practice,practice,,999,658961,3,gram,,
334,SetC2,,,,,0.0-4.0,,8078.0,,,,999,667041,4,instructions,"[{'page_index': 0, 'viewing_time': 2507}, {'page_index': 1, 'viewing_time': 3654}, {'page_index': 2, 'viewing_time': 1916}]",
334,SetC2,llwyeo,,223,,0.0-5.0-0.0,yellow,8328.399999976158,SetC,SetC2,,999,675381,5,gram,,
334,SetC2,datoy,,204,,0.0-5.0-0.1,today,19593.90000000596,SetC,SetC2,,999,694981,6,gram,,
334,SetC2,ensev,,190,,0.0-5.0-0.2,seven,6869.200000017881,SetC,SetC2,,999,701853,7,gram,,
334,SetC2,cabneo,,185,,0.0-5.0-0.3,cabone,22048.90000000596,SetC,SetC2,,999,723907,8,gram,,
334,SetC2,nilfa,,269,,0.0-5.0-0.4,final,59717.79999998212,SetC,SetC2,,999,783629,9,gram,,
334,SetC2,eedgln,,198,,0.0-5.0-0.5,legend,63068.40000000596,SetC,SetC2,,999,846700,10,gram,,
334,SetC2,htire,,184,,0.0-5.0-0.6,herit,45523.40000000596,SetC,SetC2,,999,892226,11,gram,,
334,SetC2,alshl,,237,,0.0-5.0-0.7,shall,46654.5,SetC,SetC2,,999,938882,12,gram,,
334,SetC2,ontesh,,254,,0.0-5.0-0.8,honest,105352.5,SetC,SetC2,,999,1044239,13,gram,,
334,SetC2,iebozm,,218,,0.0-5.0-0.9,zombie,9415.79999998212,SetC,SetC2,,999,1053657,14,gram,,
334,SetC2,ameg,,203,,0.0-5.0-0.10,mega,5075.0,SetC,SetC2,,999,1058734,15,gram,,
334,SetC2,eurt,,250,,0.0-5.0-0.11,rute,12604.5,SetC,SetC2,,999,1071342,16,gram,,
334,SetC2,otmnh,,227,,0.0-5.0-0.12,month,27061.29999998212,SetC,SetC2,,999,1098406,17,gram,,
334,SetC2,tintek,,191,,0.0-5.0-0.13,inttek,24647.69999998808,SetC,SetC2,,999,1123056,18,gram,,
334,SetC2,nwrche,,232,,0.0-5.0-0.14,rwench,35840.60000002384,SetC,SetC2,,999,1158898,19,gram,,
334,SetC2,feil,,187,,0.0-5.0-0.15,file,11292.5,SetC,SetC2,,999,1170194,20,gram,,
334,SetC2,htorn,,215,,0.0-5.0-0.16,thorn,58762.80000001192,SetC,SetC2,,999,1228959,21,gram,,
334,SetC2,ghnti,,228,,0.0-5.0-0.17,night,78770.09999999404,SetC,SetC2,,999,1307732,22,gram,,
334,SetC2,oxpetr,,216,,0.0-5.0-0.18,expert,12388.0,SetC,SetC2,,999,1320123,23,gram,,
334,SetC2,npal,,256,,0.0-5.0-0.19,panl,62845.0,SetC,SetC2,,999,1382970,24,gram,,
334,SetC2,mtos,,253,,0.0-5.0-0.20,most,20869.69999998808,SetC,SetC2,,999,1403843,25,gram,,
334,SetC2,odrpu,,225,,0.0-5.0-0.21,drop,94912.5,SetC,SetC2,,999,1498758,26,gram,,
334,SetC2,inecs,,211,,0.0-5.0-0.22,insec,12609.29999998212,SetC,SetC2,,999,1511372,27,gram,,
334,SetC2,lrati,,214,,0.0-5.0-0.23,ratil,10805.5,SetC,SetC2,,999,1522180,28,gram,,
334,SetC2,nithk,,208,,0.0-5.0-0.24,think,7746.699999988079,SetC,SetC2,,999,1529929,29,gram,,
334,SetC2,nadelc,,210,,0.0-5.0-0.25,candle,9817.80000001192,SetC,SetC2,,999,1539749,30,gram,,
334,SetC2,oeph,,205,,0.0-5.0-0.26,hope,7690.40000000596,SetC,SetC2,,999,1547442,31,gram,,
334,SetC2,unaitq,,186,,0.0-5.0-0.27,quaint,41897.90000000596,SetC,SetC2,,999,1589342,32,gram,,
334,SetC2,erhte,,258,,0.0-5.0-0.28,erthe,36022.79999998212,SetC,SetC2,,999,1625368,33,gram,,
334,SetC2,eeagul,,243,,0.0-5.0-0.29,leauge,12961.100000023842,SetC,SetC2,,999,1638332,34,gram,,
334,SetC2,,resting,,,0.0-6.0,0,2803.0,,,<p>Great job! You have completed the first block of trials.</p><p>Take a short break before continuing to the next block.</p>,999,1641140,35,html-button-response,,
334,SetC2,leovit,,183,,0.0-7.0-0.0,violet,31440.79999998212,SetC,SetC2,,999,1672584,36,gram,,
334,SetC2,shxti,,226,,0.0-7.0-0.1,shixt,19236.39999997616,SetC,SetC2,,999,1691825,37,gram,,
334,SetC2,onreag,,231,,0.0-7.0-0.2,orange,6664.9000000059605,SetC,SetC2,,999,1698492,38,gram,,
334,SetC2,enses,,199,,0.0-7.0-0.3,sense,10011.30000001192,SetC,SetC2,,999,1708506,39,gram,,
334,SetC2,tsco,,196,,0.0-7.0-0.4,cost,3841.2999999821186,SetC,SetC2,,999,1712351,40,gram,,
334,SetC2,stei,,265,,0.0-7.0-0.5,ties,35563.90000000596,SetC,SetC2,,999,1747917,41,gram,,
334,SetC2,patten,,251,,0.0-7.0-0.6,patten,12584.69999998808,SetC,SetC2,,999,1760504,42,gram,,
334,SetC2,amyn,,181,,0.0-7.0-0.7,many,5809.200000017881,SetC,SetC2,,999,1766316,43,gram,,
334,SetC2,ydikne,,259,,0.0-7.0-0.8,kidney,62545.40000000596,SetC,SetC2,,999,1828864,44,gram,,
334,SetC2,owsh,,261,,0.0-7.0-0.9,show,4441.0,SetC,SetC2,,999,1833308,45,gram,,
334,SetC2,gspsoi,,246,,0.0-7.0-0.10,gossip,9425.5,SetC,SetC2,,999,1842736,46,gram,,
334,SetC2,enurgt,,236,,0.0-7.0-0.11,urgent,17476.90000000596,SetC,SetC2,,999,1860216,47,gram,,
334,SetC2,orad,,242,,0.0-7.0-0.12,road,13413.0,SetC,SetC2,,999,1873632,48,gram,,
334,SetC2,lmsiep,,241,,0.0-7.0-0.13,simple,45255.39999997616,SetC,SetC2,,999,1918891,49,gram,,
334,SetC2,rtidh,,206,,0.0-7.0-0.14,dirth,35404.59999999404,SetC,SetC2,,999,1954306,50,gram,,
334,SetC2,eotn,,201,,0.0-7.0-0.15,tone,16483.69999998808,SetC,SetC2,,999,1970792,51,gram,,
334,SetC2,lelt,,217,,0.0-7.0-0.16,tell,8651.40000000596,SetC,SetC2,,999,1979446,52,gram,,
334,SetC2,ddceea,,238,,0.0-7.0-0.17,decead,61806.5,SetC,SetC2,,999,2041255,53,gram,,
334,SetC2,ehrat,,195,,0.0-7.0-0.18,threat,39438.29999998212,SetC,SetC2,,999,2080696,54,gram,,
334,SetC2,ceeap,,189,,0.0-7.0-0.19,peace,11837.5,SetC,SetC2,,999,2092537,55,gram,,
334,SetC2,eahtr,,224,,0.0-7.0-0.20,earth,9914.70000001788,SetC,SetC2,,999,2102454,56,gram,,
334,SetC2,opcy,,257,,0.0-7.0-0.21,copy,17547.70000001788,SetC,SetC2,,999,2120003,57,gram,,
334,SetC2,cnevio,,213,,0.0-7.0-0.22,cevenio,132974.40000000596,SetC,SetC2,,999,2252974,58,gram,,
334,SetC2,rthib,,200,,0.0-7.0-0.23,birth,6059.600000023842,SetC,SetC2,,999,2259036,59,gram,,
334,SetC2,ifon,,239,,0.0-7.0-0.24,fion,40795.09999999404,SetC,SetC2,,999,2299839,60,gram,,
334,SetC2,emta,,209,,0.0-7.0-0.25,tema,8138.40000000596,SetC,SetC2,,999,2307980,61,gram,,
334,SetC2,yodb,,264,,0.0-7.0-0.26,body,83359.90000000596,SetC,SetC2,,999,2391343,62,gram,,
334,SetC2,stiesu,,268,,0.0-7.0-0.27,tissue,22152.90000000596,SetC,SetC2,,999,2413498,63,gram,,
334,SetC2,ekew,,263,,0.0-7.0-0.28,week,13775.09999999404,SetC,SetC2,,999,2427277,64,gram,,
334,SetC2,ypatr,,222,,0.0-7.0-0.29,party,12028.0,SetC,SetC2,,999,2439307,65,gram,,
334,SetC2,,resting,,,0.0-8.0,0,3369.0,,,<p>Great job! You have completed the second block of trials.</p><p>Take a short break before continuing to the final block.</p>,999,2442678,66,html-button-response,,
334,SetC2,ehar,,182,,0.0-9.0-0.0,hear,24260.70000001788,SetC,SetC2,,999,2466941,67,gram,,
334,SetC2,btse,,192,,0.0-9.0-0.1,best,7081.0999999940395,SetC,SetC2,,999,2474024,68,gram,,
334,SetC2,reac,,234,,0.0-9.0-0.2,race,9140.09999999404,SetC,SetC2,,999,2483166,69,gram,,
334,SetC2,dheta,,235,,0.0-9.0-0.3,hated,128786.70000001788,SetC,SetC2,,999,2611956,70,gram,,
334,SetC2,apictm,,247,,0.0-9.0-0.4,captim,84579.59999999404,SetC,SetC2,,999,2696538,71,gram,,
334,SetC2,eljgug,,229,,0.0-9.0-0.5,gulge,10506.90000000596,SetC,SetC2,,999,2707048,72,gram,,
334,SetC2,itaw,,267,,0.0-9.0-0.6,wait,15759.0,SetC,SetC2,,999,2722809,73,gram,,
334,SetC2,nhakt,,193,,0.0-9.0-0.7,khant,101115.20000001788,SetC,SetC2,,999,2823927,74,gram,,
334,SetC2,rerntu,,219,,0.0-9.0-0.8,return,7245.800000011921,SetC,SetC2,,999,2831174,75,gram,,
334,SetC2,matoun,,249,,0.0-9.0-0.9,mountain,9286.0,SetC,SetC2,,999,2840462,76,gram,,
334,SetC2,magtne,,194,,0.0-9.0-0.10,magnet,19301.5,SetC,SetC2,,999,2859766,77,gram,,
334,SetC2,ujrion,,207,,0.0-9.0-0.11,junior,37242.5,SetC,SetC2,,999,2897013,78,gram,,
334,SetC2,mhoe,,240,,0.0-9.0-0.12,home,23934.90000000596,SetC,SetC2,,999,2920950,79,gram,,
334,SetC2,roezfn,,244,,0.0-9.0-0.13,frozen,11129.5,SetC,SetC2,,999,2932081,80,gram,,
334,SetC2,utcoh,,255,,0.0-9.0-0.14,touch,17648.0,SetC,SetC2,,999,2949732,81,gram,,
334,SetC2,ecipe,,220,,0.0-9.0-0.15,epice,181838.90000000596,SetC,SetC2,,999,3131573,82,gram,,
334,SetC2,sace,,230,,0.0-9.0-0.16,aces,11452.5,SetC,SetC2,,999,3143026,83,gram,,
334,SetC2,dahn,,266,,0.0-9.0-0.17,hand,3618.100000023842,SetC,SetC2,,999,3146648,84,gram,,
334,SetC2,estt,,245,,0.0-9.0-0.18,test,9894.69999998808,SetC,SetC2,,999,3156546,85,gram,,
334,SetC2,arint,,270,,0.0-9.0-0.19,raint,75183.10000002384,SetC,SetC2,,999,3231731,86,gram,,
334,SetC2,ieda,,262,,0.0-9.0-0.20,idea,3839.2000000178814,SetC,SetC2,,999,3235573,87,gram,,
334,SetC2,retmka,,233,,0.0-9.0-0.21,market,46110.39999997616,SetC,SetC2,,999,3281686,88,gram,,
334,SetC2,lbea,,188,,0.0-9.0-0.22,able,10606.40000000596,SetC,SetC2,,999,3292295,89,gram,,
334,SetC2,oattl,,212,,0.0-9.0-0.23,total,27879.0,SetC,SetC2,,999,3320179,90,gram,,
334,SetC2,lsat,,202,,0.0-9.0-0.24,salt,4699.5,SetC,SetC2,,999,3324880,91,gram,,
334,SetC2,rteta,,221,,0.0-9.0-0.25,treat,24145.5,SetC,SetC2,,999,3349028,92,gram,,
334,SetC2,iwve,,260,,0.0-9.0-0.26,view,10106.90000000596,SetC,SetC2,,999,3359137,93,gram,,
334,SetC2,srhfe,,197,,0.0-9.0-0.27,fresh,39726.30000001192,SetC,SetC2,,999,3398865,94,gram,,
334,SetC2,othrs,,248,,0.0-9.0-0.28,sorth,84817.29999998212,SetC,SetC2,,999,3483686,95,gram,,
334,SetC2,arnrwo,,252,,0.0-9.0-0.29,narrow,34654.59999999404,SetC,SetC2,,999,3518342,96,gram,,
334,SetC2,,,,"[{""event"":""blur"",""trial"":0,""time"":20729},{""event"":""focus"",""trial"":0,""time"":111733},{""event"":""blur"",""trial"":0,""time"":118270},{""event"":""focus"",""trial"":0,""time"":386151},{""event"":""blur"",""trial"":0,""time"":463082},{""event"":""focus"",""trial"":0,""time"":464849},{""event"":""blur"",""trial"":0,""time"":470766},{""event"":""focus"",""trial"":0,""time"":478625},{""event"":""blur"",""trial"":77,""time"":2846388},{""event"":""focus"",""trial"":77,""time"":2847532},{""event"":""blur"",""trial"":77,""time"":2847846},{""event"":""focus"",""trial"":77,""time"":2854838},{""event"":""blur"",""trial"":97,""time"":3521861},{""event"":""focus"",""trial"":97,""time"":3525826},{""event"":""blur"",""trial"":97,""time"":3532384},{""event"":""focus"",""trial"":97,""time"":3536192},{""event"":""blur"",""trial"":97,""time"":3543772},{""event"":""focus"",""trial"":97,""time"":3546877},{""event"":""blur"",""trial"":97,""time"":3551871},{""event"":""focus"",""trial"":97,""time"":3560662},{""event"":""blur"",""trial"":97,""time"":3565079},{""event"":""focus"",""trial"":97,""time"":3567766},{""event"":""blur"",""trial"":97,""time"":3570930},{""event"":""focus"",""trial"":97,""time"":3574794},{""event"":""blur"",""trial"":97,""time"":3578696},{""event"":""focus"",""trial"":97,""time"":3580756},{""event"":""blur"",""trial"":97,""time"":3583403},{""event"":""focus"",""trial"":97,""time"":3586653},{""event"":""blur"",""trial"":97,""time"":3589196},{""event"":""focus"",""trial"":97,""time"":3591113},{""event"":""blur"",""trial"":97,""time"":3593352},{""event"":""focus"",""trial"":97,""time"":3596376},{""event"":""blur"",""trial"":97,""time"":3599630},{""event"":""focus"",""trial"":97,""time"":3602327},{""event"":""blur"",""trial"":97,""time"":3606294},{""event"":""focus"",""trial"":97,""time"":3608014},{""event"":""blur"",""trial"":97,""time"":3610253},{""event"":""focus"",""trial"":97,""time"":3660154},{""event"":""blur"",""trial"":97,""time"":3711227},{""event"":""focus"",""trial"":97,""time"":3712648}]",0.0-11.0,,13339.0,,,,999,3751894,98,instructions,"[{'page_index': 0, 'viewing_time': 7869}, {'page_index': 1, 'viewing_time': 5469}]",
350,SetC2,,,,,0.0-0.0,,231114.0,,,,999,231126,0,instructions,"[{'page_index': 0, 'viewing_time': 201334}, {'page_index': 1, 'viewing_time': 4054}, {'page_index': 2, 'viewing_time': 12270}, {'page_index': 3, 'viewing_time': 9685}, {'page_index': 4, 'viewing_time': 2950}, {'page_index': 5, 'viewing_time': 820}]",
350,SetC2,,consent,,,0.0-1.0,0,4897.0,,,"<p>By pressing continue below, I understand that I am consenting to participation in this research.</p>",999,236029,1,html-button-response,,
350,SetC2,,,,,0.0-2.0,,20698.0,,,,999,256727,2,instructions,"[{'page_index': 0, 'viewing_time': 4089}, {'page_index': 1, 'viewing_time': 2481}, {'page_index': 2, 'viewing_time': 1086}, {'page_index': 3, 'viewing_time': 3295}, {'page_index': 4, 'viewing_time': 5128}, {'page_index': 5, 'viewing_time': 3345}, {'page_index': 6, 'viewing_time': 1274}]",
350,SetC2,rapctiec,,practice,,0.0-3.0,practice,8152.800000011921,practice,practice,,999,264882,3,gram,,
350,SetC2,,,,,0.0-4.0,,5158.0,,,,999,270041,4,instructions,"[{'page_index': 0, 'viewing_time': 1843}, {'page_index': 1, 'viewing_time': 2088}, {'page_index': 2, 'viewing_time': 1227}]",
350,SetC2,llwyeo,,223,,0.0-5.0-0.0,yellow,3325.699999988079,SetC,SetC2,,999,273371,5,gram,,
350,SetC2,datoy,,204,,0.0-5.0-0.1,today,2767.800000011921,SetC,SetC2,,999,276141,6,gram,,
350,SetC2,ensev,,190,,0.0-5.0-0.2,seven,5559.199999988079,SetC,SetC2,,999,281701,7,gram,,
350,SetC2,cabneo,,185,,0.0-5.0-0.3,beacon,21899.19999998808,SetC,SetC2,,999,303601,8,gram,,
350,SetC2,nilfa,,269,,0.0-5.0-0.4,final,30949.0,SetC,SetC2,,999,334551,9,gram,,
350,SetC2,eedgln,,198,,0.0-5.0-0.5,legend,23697.60000002384,SetC,SetC2,,999,358249,10,gram,,
350,SetC2,htire,,184,,0.0-5.0-0.6,thire,7109.599999964237,SetC,SetC2,,999,365360,11,gram,,
350,SetC2,alshl,,237,,0.0-5.0-0.7,shall,8639.199999988079,SetC,SetC2,,999,374000,12,gram,,
350,SetC2,ontesh,,254,,0.0-5.0-0.8,honest,19939.30000001192,SetC,SetC2,,999,393940,13,gram,,
350,SetC2,iebozm,,218,,0.0-5.0-0.9,zombie,7689.199999988079,SetC,SetC2,,999,401630,14,gram,,
350,SetC2,ameg,,203,,0.0-5.0-0.10,mega,2419.300000011921,SetC,SetC2,,999,404050,15,gram,,
350,SetC2,eurt,,250,,0.0-5.0-0.11,rute,11159.400000035765,SetC,SetC2,,999,415210,16,gram,,
350,SetC2,otmnh,,227,,0.0-5.0-0.12,month,5098.699999988079,SetC,SetC2,,999,420309,17,gram,,
350,SetC2,tintek,,191,,0.0-5.0-0.13,kitten,13708.5,SetC,SetC2,,999,434018,18,gram,,
350,SetC2,nwrche,,232,,0.0-5.0-0.14,wrench,3499.2000000476837,SetC,SetC2,,999,437518,19,gram,,
350,SetC2,feil,,187,,0.0-5.0-0.15,life,4168.900000035763,SetC,SetC2,,999,441688,20,gram,,
350,SetC2,htorn,,215,,0.0-5.0-0.16,thorn,1889.5,SetC,SetC2,,999,443578,21,gram,,
350,SetC2,ghnti,,228,,0.0-5.0-0.17,night,3819.400000035763,SetC,SetC2,,999,447398,22,gram,,
350,SetC2,oxpetr,,216,,0.0-5.0-0.18,export,6389.199999988079,SetC,SetC2,,999,453788,23,gram,,
350,SetC2,npal,,256,,0.0-5.0-0.19,plan,10389.0,SetC,SetC2,,999,464178,24,gram,,
350,SetC2,mtos,,253,,0.0-5.0-0.20,smot,35019.200000047684,SetC,SetC2,,999,499198,25,gram,,
350,SetC2,odrpu,,225,,0.0-5.0-0.21,proud,7139.100000023842,SetC,SetC2,,999,506338,26,gram,,
350,SetC2,inecs,,211,,0.0-5.0-0.22,since,59298.19999998808,SetC,SetC2,,999,565637,27,gram,,
350,SetC2,lrati,,214,,0.0-5.0-0.23,trail,4239.099999964237,SetC,SetC2,,999,569877,28,gram,,
350,SetC2,nithk,,208,,0.0-5.0-0.24,think,3549.300000011921,SetC,SetC2,,999,573427,29,gram,,
350,SetC2,nadelc,,210,,0.0-5.0-0.25,candle,6598.800000011921,SetC,SetC2,,999,580027,30,gram,,
350,SetC2,oeph,,205,,0.0-5.0-0.26,hope,4079.099999964237,SetC,SetC2,,999,584107,31,gram,,
350,SetC2,unaitq,,186,,0.0-5.0-0.27,quaint,4289.199999988079,SetC,SetC2,,999,588397,32,gram,,
350,SetC2,erhte,,258,,0.0-5.0-0.28,there,2229.199999988079,SetC,SetC2,,999,590627,33,gram,,
350,SetC2,eeagul,,243,,0.0-5.0-0.29,league,15259.0,SetC,SetC2,,999,605886,34,gram,,
350,SetC2,,resting,,,0.0-6.0,0,34188.0,,,<p>Great job! You have completed the first block of trials.</p><p>Take a short break before continuing to the next block.</p>,999,640076,35,html-button-response,,
350,SetC2,leovit,,183,,0.0-7.0-0.0,violet,22228.60000002384,SetC,SetC2,,999,662306,36,gram,,
350,SetC2,shxti,,226,,0.0-7.0-0.1,sixth,20188.900000035763,SetC,SetC2,,999,682496,37,gram,,
350,SetC2,onreag,,231,,0.0-7.0-0.2,orange,23709.200000047684,SetC,SetC2,,999,706206,38,gram,,
350,SetC2,enses,,199,,0.0-7.0-0.3,sense,3648.700000047684,SetC,SetC2,,999,709856,39,gram,,
350,SetC2,tsco,,196,,0.0-7.0-0.4,scot,4119.399999976158,SetC,SetC2,,999,713976,40,gram,,
350,SetC2,stei,,265,,0.0-7.0-0.5,site,4969.0,SetC,SetC2,,999,718946,41,gram,,
350,SetC2,patten,,251,,0.0-7.0-0.6,patent,53278.19999998808,SetC,SetC2,,999,772226,42,gram,,
350,SetC2,amyn,,181,,0.0-7.0-0.7,many,7269.0,SetC,SetC2,,999,779495,43,gram,,
350,SetC2,ydikne,,259,,0.0-7.0-0.8,kidney,3169.399999976158,SetC,SetC2,,999,782665,44,gram,,
350,SetC2,owsh,,261,,0.0-7.0-0.9,show,2109.100000023842,SetC,SetC2,,999,784775,45,gram,,
350,SetC2,gspsoi,,246,,0.0-7.0-0.10,gossip,2859.199999988079,SetC,SetC2,,999,787635,46,gram,,
350,SetC2,enurgt,,236,,0.0-7.0-0.11,urgent,22029.5,SetC,SetC2,,999,809665,47,gram,,
350,SetC2,orad,,242,,0.0-7.0-0.12,road,11439.099999964235,SetC,SetC2,,999,821105,48,gram,,
350,SetC2,lmsiep,,241,,0.0-7.0-0.13,simple,14387.80000001192,SetC,SetC2,,999,835494,49,gram,,
350,SetC2,rtidh,,206,,0.0-7.0-0.14,third,9178.899999976158,SetC,SetC2,,999,844674,50,gram,,
350,SetC2,eotn,,201,,0.0-7.0-0.15,tone,4139.199999988079,SetC,SetC2,,999,848814,51,gram,,
350,SetC2,lelt,,217,,0.0-7.0-0.16,tell,2669.199999988079,SetC,SetC2,,999,851484,52,gram,,
350,SetC2,ddceea,,238,,0.0-7.0-0.17,decade,18389.10000002384,SetC,SetC2,,999,869874,53,gram,,
350,SetC2,ehrat,,195,,0.0-7.0-0.18,heart,3719.299999952316,SetC,SetC2,,999,873594,54,gram,,
350,SetC2,ceeap,,189,,0.0-7.0-0.19,peace,3329.2999999523163,SetC,SetC2,,999,876924,55,gram,,
350,SetC2,eahtr,,224,,0.0-7.0-0.20,heart,7279.399999976158,SetC,SetC2,,999,884204,56,gram,,
350,SetC2,opcy,,257,,0.0-7.0-0.21,copy,4658.799999952316,SetC,SetC2,,999,888864,57,gram,,
350,SetC2,cnevio,,213,,0.0-7.0-0.22,novice,19718.900000035763,SetC,SetC2,,999,908583,58,gram,,
350,SetC2,rthib,,200,,0.0-7.0-0.23,birth,2859.2000000476837,SetC,SetC2,,999,911444,59,gram,,
350,SetC2,ifon,,239,,0.0-7.0-0.24,info,34338.30000001192,SetC,SetC2,,999,945783,60,gram,,
350,SetC2,emta,,209,,0.0-7.0-0.25,team,2079.100000023842,SetC,SetC2,,999,947863,61,gram,,
350,SetC2,yodb,,264,,0.0-7.0-0.26,body,1959.300000011921,SetC,SetC2,,999,949823,62,gram,,
350,SetC2,stiesu,,268,,0.0-7.0-0.27,tissue,3829.300000011921,SetC,SetC2,,999,953653,63,gram,,
350,SetC2,ekew,,263,,0.0-7.0-0.28,week,7179.099999964237,SetC,SetC2,,999,960833,64,gram,,
350,SetC2,ypatr,,222,,0.0-7.0-0.29,party,2359.099999964237,SetC,SetC2,,999,963193,65,gram,,
350,SetC2,,resting,,,0.0-8.0,0,55399.0,,,<p>Great job! You have completed the second block of trials.</p><p>Take a short break before continuing to the final block.</p>,999,1018592,66,html-button-response,,
350,SetC2,ehar,,182,,0.0-9.0-0.0,hare,1862.899999976158,SetC,SetC2,,999,1020456,67,gram,,
350,SetC2,btse,,192,,0.0-9.0-0.1,best,8099.199999988079,SetC,SetC2,,999,1028557,68,gram,,
350,SetC2,reac,,234,,0.0-9.0-0.2,care,2929.399999976158,SetC,SetC2,,999,1031487,69,gram,,
350,SetC2,dheta,,235,,0.0-9.0-0.3,death,17588.69999998808,SetC,SetC2,,999,1049076,70,gram,,
350,SetC2,apictm,,247,,0.0-9.0-0.4,impact,43748.90000003576,SetC,SetC2,,999,1092827,71,gram,,
350,SetC2,eljgug,,229,,0.0-9.0-0.5,juggle,4209.600000023842,SetC,SetC2,,999,1097037,72,gram,,
350,SetC2,itaw,,267,,0.0-9.0-0.6,wait,3249.400000035763,SetC,SetC2,,999,1100287,73,gram,,
350,SetC2,nhakt,,193,,0.0-9.0-0.7,thank,3259.0,SetC,SetC2,,999,1103547,74,gram,,
350,SetC2,rerntu,,219,,0.0-9.0-0.8,return,4479.599999964237,SetC,SetC2,,999,1108027,75,gram,,
350,SetC2,matoun,,249,,0.0-9.0-0.9,amount,6388.100000023842,SetC,SetC2,,999,1114416,76,gram,,
350,SetC2,magtne,,194,,0.0-9.0-0.10,magnet,4199.300000011921,SetC,SetC2,,999,1118616,77,gram,,
350,SetC2,ujrion,,207,,0.0-9.0-0.11,junior,47509.09999996424,SetC,SetC2,,999,1166126,78,gram,,
350,SetC2,mhoe,,240,,0.0-9.0-0.12,homr,2418.800000011921,SetC,SetC2,,999,1168546,79,gram,,
350,SetC2,roezfn,,244,,0.0-9.0-0.13,frozen,5319.799999952316,SetC,SetC2,,999,1173866,80,gram,,
350,SetC2,utcoh,,255,,0.0-9.0-0.14,couth,6599.100000023842,SetC,SetC2,,999,1180466,81,gram,,
350,SetC2,ecipe,,220,,0.0-9.0-0.15,piece,10659.19999998808,SetC,SetC2,,999,1191126,82,gram,,
350,SetC2,sace,,230,,0.0-9.0-0.16,case,2628.800000011921,SetC,SetC2,,999,1193756,83,gram,,
350,SetC2,dahn,,266,,0.0-9.0-0.17,hand,2849.7999999523163,SetC,SetC2,,999,1196606,84,gram,,
350,SetC2,estt,,245,,0.0-9.0-0.18,test,2149.099999964237,SetC,SetC2,,999,1198755,85,gram,,
350,SetC2,arint,,270,,0.0-9.0-0.19,train,3629.5,SetC,SetC2,,999,1202385,86,gram,,
350,SetC2,ieda,,262,,0.0-9.0-0.20,idea,5229.299999952316,SetC,SetC2,,999,1207615,87,gram,,
350,SetC2,retmka,,233,,0.0-9.0-0.21,market,2409.300000011921,SetC,SetC2,,999,1210025,88,gram,,
350,SetC2,lbea,,188,,0.0-9.0-0.22,bale,4078.300000011921,SetC,SetC2,,999,1214104,89,gram,,
350,SetC2,oattl,,212,,0.0-9.0-0.23,total,12939.099999964235,SetC,SetC2,,999,1227044,90,gram,,
350,SetC2,lsat,,202,,0.0-9.0-0.24,last,5889.199999988079,SetC,SetC2,,999,1232934,91,gram,,
350,SetC2,rteta,,221,,0.0-9.0-0.25,treat,5309.300000011921,SetC,SetC2,,999,1238244,92,gram,,
350,SetC2,iwve,,260,,0.0-9.0-0.26,view,6859.0,SetC,SetC2,,999,1245104,93,gram,,
350,SetC2,srhfe,,197,,0.0-9.0-0.27,fresh,3199.100000023842,SetC,SetC2,,999,1248304,94,gram,,
350,SetC2,othrs,,248,,0.0-9.0-0.28,short,10008.600000023842,SetC,SetC2,,999,1258314,95,gram,,
350,SetC2,arnrwo,,252,,0.0-9.0-0.29,narrow,5939.800000011921,SetC,SetC2,,999,1264255,96,gram,,
350,SetC2,,,,"[{""event"":""blur"",""trial"":0,""time"":1482},{""event"":""focus"",""trial"":0,""time"":27813},{""event"":""blur"",""trial"":0,""time"":29066},{""event"":""focus"",""trial"":0,""time"":80628},{""event"":""blur"",""trial"":0,""time"":81637},{""event"":""focus"",""trial"":0,""time"":110699},{""event"":""blur"",""trial"":0,""time"":111703},{""event"":""focus"",""trial"":0,""time"":152066},{""event"":""blur"",""trial"":0,""time"":153003},{""event"":""focus"",""trial"":0,""time"":200221},{""event"":""blur"",""trial"":35,""time"":614018},{""event"":""focus"",""trial"":35,""time"":623012},{""event"":""blur"",""trial"":97,""time"":1266048},{""event"":""focus"",""trial"":97,""time"":1270848},{""event"":""blur"",""trial"":97,""time"":1277051},{""event"":""focus"",""trial"":97,""time"":1281974},{""event"":""blur"",""trial"":97,""time"":1307662},{""event"":""focus"",""trial"":97,""time"":1311610},{""event"":""blur"",""trial"":97,""time"":1322957},{""event"":""focus"",""trial"":97,""time"":1324337},{""event"":""blur"",""trial"":97,""time"":1329990},{""event"":""focus"",""trial"":97,""time"":1333430},{""event"":""blur"",""trial"":97,""time"":1336514},{""event"":""focus"",""trial"":97,""time"":1338088},{""event"":""blur"",""trial"":97,""time"":1342116},{""event"":""focus"",""trial"":97,""time"":1344285},{""event"":""blur"",""trial"":97,""time"":1348301},{""event"":""focus"",""trial"":97,""time"":1351406},{""event"":""blur"",""trial"":97,""time"":1355882},{""event"":""focus"",""trial"":97,""time"":1359936},{""event"":""blur"",""trial"":97,""time"":1367607},{""event"":""focus"",""trial"":97,""time"":1369827},{""event"":""blur"",""trial"":97,""time"":1372337},{""event"":""focus"",""trial"":97,""time"":1373621},{""event"":""blur"",""trial"":97,""time"":1375595},{""event"":""focus"",""trial"":97,""time"":1378254},{""event"":""blur"",""trial"":97,""time"":1380025},{""event"":""focus"",""trial"":97,""time"":1381860}]",0.0-11.0,,7333.0,,,,999,1392807,98,instructions,"[{'page_index': 0, 'viewing_time': 3505}, {'page_index': 1, 'viewing_time': 3828}]",
349,SetD1,,,,,0.0-0.0,,56738.0,,,,999,56753,0,instructions,"[{'page_index': 0, 'viewing_time': 2844}, {'page_index': 1, 'viewing_time': 6352}, {'page_index': 2, 'viewing_time': 23719}, {'page_index': 3, 'viewing_time': 15056}, {'page_index': 4, 'viewing_time': 4900}, {'page_index': 5, 'viewing_time': 3866}]",
349,SetD1,,consent,,,0.0-1.0,0,2486.0,,,"<p>By pressing continue below, I understand that I am consenting to participation in this research.</p>",999,59242,1,html-button-response,,
349,SetD1,,,,,0.0-2.0,,25093.0,,,,999,84335,2,instructions,"[{'page_index': 0, 'viewing_time': 2633}, {'page_index': 1, 'viewing_time': 3255}, {'page_index': 2, 'viewing_time': 2755}, {'page_index': 3, 'viewing_time': 4569}, {'page_index': 4, 'viewing_time': 7395}, {'page_index': 5, 'viewing_time': 3628}, {'page_index': 6, 'viewing_time': 858}]",
349,SetD1,rapctiec,,practice,,0.0-3.0,practice,5800.699999999953,practice,practice,,999,90138,3,gram,,
349,SetD1,,,,,0.0-4.0,,9007.0,,,,999,99145,4,instructions,"[{'page_index': 0, 'viewing_time': 1408}, {'page_index': 1, 'viewing_time': 5980}, {'page_index': 2, 'viewing_time': 1619}]",
349,SetD1,yttnko,,271,,0.0-5.0-0.0,knotty,38093.30000000005,SetD,SetD1,,999,137240,5,gram,,
349,SetD1,lndsai,,272,,0.0-5.0-0.1,island,10156.799999999814,SetD,SetD1,,999,147399,6,gram,,
349,SetD1,twhac,,273,,0.0-5.0-0.2,watch,9809.5,SetD,SetD1,,999,157209,7,gram,,
349,SetD1,tsli,,274,,0.0-5.0-0.3,list,1936.7000000001865,SetD,SetD1,,999,159147,8,gram,,
349,SetD1,hself,,275,,0.0-5.0-0.4,shelf,4774.0,SetD,SetD1,,999,163922,9,gram,,
349,SetD1,yngou,,276,,0.0-5.0-0.5,gouny,40445.700000000186,SetD,SetD1,,999,204367,10,gram,,
349,SetD1,msis,,277,,0.0-5.0-0.6,miss,1788.0,SetD,SetD1,,999,206156,11,gram,,
349,SetD1,ellyav,,278,,0.0-5.0-0.7,valley,2924.8000000000466,SetD,SetD1,,999,209082,12,gram,,
349,SetD1,wtroh,,279,,0.0-5.0-0.8,throw,16111.199999999952,SetD,SetD1,,999,225193,13,gram,,
349,SetD1,dpaeut,,280,,0.0-5.0-0.9,update,30187.5,SetD,SetD1,,999,255469,14,gram,,
349,SetD1,enowrd,,281,,0.0-5.0-0.10,wonder,22822.100000000093,SetD,SetD1,,999,278292,15,gram,,
349,SetD1,esur,,282,,0.0-5.0-0.11,sure,1665.3000000000466,SetD,SetD1,,999,279958,16,gram,,
349,SetD1,shif,,283,,0.0-5.0-0.12,fish,5298.100000000093,SetD,SetD1,,999,285257,17,gram,,
349,SetD1,rcad,,284,,0.0-5.0-0.13,card,2953.0,SetD,SetD1,,999,288211,18,gram,,
349,SetD1,wnmeo,,285,,0.0-5.0-0.14,women,3062.8000000000466,SetD,SetD1,,999,291275,19,gram,,
349,SetD1,piarll,,286,,0.0-5.0-0.15,pillar,23954.40000000014,SetD,SetD1,,999,315230,20,gram,,
349,SetD1,edal,,287,,0.0-5.0-0.16,deal,2272.6999999999534,SetD,SetD1,,999,317504,21,gram,,
349,SetD1,aedgma,,288,,0.0-5.0-0.17,gamed,12440.100000000091,SetD,SetD1,,999,329945,22,gram,,
349,SetD1,rfom,,289,,0.0-5.0-0.18,form,2357.399999999907,SetD,SetD1,,999,332304,23,gram,,
349,SetD1,qruuom,,290,,0.0-5.0-0.19,quroum,31707.100000000093,SetD,SetD1,,999,364011,24,gram,,
349,SetD1,rcanhb,,291,,0.0-5.0-0.20,charbn,32842.700000000186,SetD,SetD1,,999,396854,25,gram,,
349,SetD1,oevci,,292,,0.0-5.0-0.21,covie,8302.600000000093,SetD,SetD1,,999,405158,26,gram,,
349,SetD1,olkcc,,293,,0.0-5.0-0.22,clock,2414.3000000000466,SetD,SetD1,,999,407573,27,gram,,
349,SetD1,elas,,294,,0.0-5.0-0.23,sale ,3779.5,SetD,SetD1,,999,411353,28,gram,,
349,SetD1,lenion,,295,,0.0-5.0-0.24,online,11286.0,SetD,SetD1,,999,422640,29,gram,,
349,SetD1,aybb,,296,,0.0-5.0-0.25,baby,3485.399999999907,SetD,SetD1,,999,426126,30,gram,,
349,SetD1,ssma,,297,,0.0-5.0-0.26,mass,3089.5,SetD,SetD1,,999,429217,31,gram,,
349,SetD1,nrlaom,,298,,0.0-5.0-0.27,normal,17499.999999999767,SetD,SetD1,,999,446717,32,gram,,
349,SetD1,waets,,299,,0.0-5.0-0.28,sweat,2824.4000000003725,SetD,SetD1,,999,449543,33,gram,,
349,SetD1,gowrn,,300,,0.0-5.0-0.29,grown,2933.9000000003725,SetD,SetD1,,999,452478,34,gram,,
349,SetD1,,resting,,,0.0-6.0,0,166517.0,,,<p>Great job! You have completed the first block of trials.</p><p>Take a short break before continuing to the next block.</p>,999,664082,35,html-button-response,,
349,SetD1,otinpo,,301,,0.0-7.0-0.0,option,10047.900000000373,SetD,SetD1,,999,674130,36,gram,,
349,SetD1,oveid,,302,,0.0-7.0-0.1,voide,14654.0,SetD,SetD1,,999,688786,37,gram,,
349,SetD1,labl,,303,,0.0-7.0-0.2,ball,4645.299999999814,SetD,SetD1,,999,693432,38,gram,,
349,SetD1,huotys,,304,,0.0-7.0-0.3,shouty,6880.399999999907,SetD,SetD1,,999,700313,39,gram,,
349,SetD1,pisl,,305,,0.0-7.0-0.4,lisp,2446.3000000002794,SetD,SetD1,,999,702761,40,gram,,
349,SetD1,lbcu,,306,,0.0-7.0-0.5,bulc,4234.5,SetD,SetD1,,999,706997,41,gram,,
349,SetD1,auvel,,307,,0.0-7.0-0.6,value,13813.700000000186,SetD,SetD1,,999,720811,42,gram,,
349,SetD1,ogetun,,308,,0.0-7.0-0.7,tongue,20919.200000000183,SetD,SetD1,,999,741731,43,gram,,
349,SetD1,asdn,,309,,0.0-7.0-0.8,sand,9699.400000000373,SetD,SetD1,,999,751432,44,gram,,
349,SetD1,iitsv,,310,,0.0-7.0-0.9,visit,14709.0,SetD,SetD1,,999,766141,45,gram,,
349,SetD1,erwso,,311,,0.0-7.0-0.10,worse,2740.7000000001863,SetD,SetD1,,999,768883,46,gram,,
349,SetD1,rauesq,,312,,0.0-7.0-0.11,square,8577.299999999814,SetD,SetD1,,999,777461,47,gram,,
349,SetD1,rtewa,,313,,0.0-7.0-0.12,water,2333.2000000001863,SetD,SetD1,,999,779796,48,gram,,
349,SetD1,truts,,314,,0.0-7.0-0.13,truts,4900.699999999721,SetD,SetD1,,999,784698,49,gram,,
349,SetD1,iwrte,,315,,0.0-7.0-0.14, write,3843.0,SetD,SetD1,,999,788542,50,gram,,
349,SetD1,etps,,316,,0.0-7.0-0.15,step,1681.2000000001865,SetD,SetD1,,999,790225,51,gram,,
349,SetD1,uausl,,317,,0.0-7.0-0.16,sualu,12274.80000000028,SetD,SetD1,,999,802500,52,gram,,
349,SetD1,kins,,318,,0.0-7.0-0.17,sink,2561.2999999998137,SetD,SetD1,,999,805062,53,gram,,
349,SetD1,tcwie,,319,,0.0-7.0-0.18,twice,3542.5,SetD,SetD1,,999,808606,54,gram,,
349,SetD1,rtuht,,320,,0.0-7.0-0.19,thurt,9206.100000000091,SetD,SetD1,,999,817813,55,gram,,
349,SetD1,tuyho,,321,,0.0-7.0-0.20,thouy,22466.5,SetD,SetD1,,999,840280,56,gram,,
349,SetD1,ehicoc,,322,,0.0-7.0-0.21,choice,4036.7999999998137,SetD,SetD1,,999,844318,57,gram,,
349,SetD1,ituln,,323,,0.0-7.0-0.22,nuilt,20871.299999999817,SetD,SetD1,,999,865190,58,gram,,
349,SetD1,zigagz,,324,,0.0-7.0-0.23,zigzag,10636.5,SetD,SetD1,,999,875827,59,gram,,
349,SetD1,ilmk,,325,,0.0-7.0-0.24,limk,6901.699999999721,SetD,SetD1,,999,882730,60,gram,,
349,SetD1,srki,,326,,0.0-7.0-0.25,kris,9557.200000000186,SetD,SetD1,,999,892288,61,gram,,
349,SetD1,hiwel,,327,,0.0-7.0-0.26,whiel,13205.899999999909,SetD,SetD1,,999,905495,62,gram,,
349,SetD1,asps,,328,,0.0-7.0-0.27,pass,5055.0,SetD,SetD1,,999,910551,63,gram,,
349,SetD1,oact,,329,,0.0-7.0-0.28,taco,3174.8000000002794,SetD,SetD1,,999,913727,64,gram,,
349,SetD1,ecepir,,330,,0.0-7.0-0.29,recipe,28758.900000000373,SetD,SetD1,,999,942486,65,gram,,
349,SetD1,,resting,,,0.0-8.0,0,20306.0,,,<p>Great job! You have completed the second block of trials.</p><p>Take a short break before continuing to the final block.</p>,999,962793,66,html-button-response,,
349,SetD1,gtreat,,331,,0.0-9.0-0.0,target,27220.69999999972,SetD,SetD1,,999,990014,67,gram,,
349,SetD1,vleo,,332,,0.0-9.0-0.1,love,1736.3000000002794,SetD,SetD1,,999,991751,68,gram,,
349,SetD1,aebs,,333,,0.0-9.0-0.2,baser,2884.2999999998137,SetD,SetD1,,999,994637,69,gram,,
349,SetD1,memidu,,334,,0.0-9.0-0.3,medium,9971.399999999909,SetD,SetD1,,999,1004609,70,gram,,
349,SetD1,eltlit,,335,,0.0-9.0-0.4,little,4960.899999999907,SetD,SetD1,,999,1009571,71,gram,,
349,SetD1,eert,,336,,0.0-9.0-0.5,reet,8300.0,SetD,SetD1,,999,1017872,72,gram,,
349,SetD1,lpaep,,337,,0.0-9.0-0.6,apple,28638.69999999972,SetD,SetD1,,999,1046511,73,gram,,
349,SetD1,eowhl,,338,,0.0-9.0-0.7,whole,2227.0,SetD,SetD1,,999,1048739,74,gram,,
349,SetD1,foluyj,,339,,0.0-9.0-0.8,joyful,10155.200000000186,SetD,SetD1,,999,1058895,75,gram,,
349,SetD1,laolgb,,340,,0.0-9.0-0.9,global,5658.5,SetD,SetD1,,999,1064554,76,gram,,
349,SetD1,azjz,,341,,0.0-9.0-0.10,jazz,3370.600000000093,SetD,SetD1,,999,1067926,77,gram,,
349,SetD1,buel,,342,,0.0-9.0-0.11,blue,4607.600000000093,SetD,SetD1,,999,1072535,78,gram,,
349,SetD1,rcea,,343,,0.0-9.0-0.12,race,2329.5,SetD,SetD1,,999,1074866,79,gram,,
349,SetD1,rwoyr,,344,,0.0-9.0-0.13,worry,16409.200000000186,SetD,SetD1,,999,1091276,80,gram,,
349,SetD1,oecxti,,345,,0.0-9.0-0.14,exotic,12837.0,SetD,SetD1,,999,1104117,81,gram,,
349,SetD1,admrei,,346,,0.0-9.0-0.15,admeri,4628.4000000003725,SetD,SetD1,,999,1108747,82,gram,,
349,SetD1,omnaw,,347,,0.0-9.0-0.16,woman,2301.399999999907,SetD,SetD1,,999,1111049,83,gram,,
349,SetD1,eunrd,,348,,0.0-9.0-0.17,under,25007.099999999627,SetD,SetD1,,999,1136057,84,gram,,
349,SetD1,roeich,,349,,0.0-9.0-0.18,richeo,8264.899999999907,SetD,SetD1,,999,1144323,85,gram,,
349,SetD1,lilb,,350,,0.0-9.0-0.19,bill,2153.8000000002794,SetD,SetD1,,999,1146477,86,gram,,
349,SetD1,rhaic,,351,,0.0-9.0-0.20,chai,2070.7999999998137,SetD,SetD1,,999,1148550,87,gram,,
349,SetD1,bnda,,352,,0.0-9.0-0.21,band,2236.399999999907,SetD,SetD1,,999,1150787,88,gram,,
349,SetD1,pseong,,353,,0.0-9.0-0.22,sponge,19968.69999999972,SetD,SetD1,,999,1170757,89,gram,,
349,SetD1,rcinpe,,354,,0.0-9.0-0.23,recipen,7839.200000000186,SetD,SetD1,,999,1178597,90,gram,,
349,SetD1,ymafli,,355,,0.0-9.0-0.24,flaimuy,24446.799999999817,SetD,SetD1,,999,1203044,91,gram,,
349,SetD1,wieht,,356,,0.0-9.0-0.25,theiw,16530.700000000186,SetD,SetD1,,999,1219575,92,gram,,
349,SetD1,ryma,,357,,0.0-9.0-0.26,mary,4630.5,SetD,SetD1,,999,1224207,93,gram,,
349,SetD1,lodwr,,358,,0.0-9.0-0.27,wo,6018.0,SetD,SetD1,,999,1230226,94,gram,,
349,SetD1,acpm,,359,,0.0-9.0-0.28,camp,8486.599999999627,SetD,SetD1,,999,1238713,95,gram,,
349,SetD1,iqnuue,,360,,0.0-9.0-0.29,quenui,16912.0,SetD,SetD1,,999,1255626,96,gram,,
